[
  {
    "_id": "65fdc69256f63758311b01b0",
    "rt": 2678,
    "stimulus": "imgs/Subject_35/p43.jpg",
    "slider_start": 5,
    "response": 7,
    "task": "slider",
    "trial_type": "image-slider-response",
    "trial_index": 3,
    "time_elapsed": 10495,
    "internal_node_id": "0.0-2.0-1.0",
    "subject_id": "65d63b0717dd79b55e1f5f4e",
    "study_id": "65fc8633011b896607968f94",
    "session_id": "07bwuz44nrh",
    "imagefolder_id": 35
  },
  {
    "_id": "65fdc69556f63758311b01b1",
    "rt": 2858,
    "stimulus": "imgs/Subject_35/p156_scr.jpg",
    "slider_start": 5,
    "response": 0,
    "task": "slider",
    "trial_type": "image-slider-response",
    "trial_index": 5,
    "time_elapsed": 13857,
    "internal_node_id": "0.0-2.0-1.1",
    "subject_id": "65d63b0717dd79b55e1f5f4e",
    "study_id": "65fc8633011b896607968f94",
    "session_id": "07bwuz44nrh",
    "imagefolder_id": 35
  },
  {
    "_id": "65fdc69956f63758311b01b2",
    "rt": 3224,
    "stimulus": "imgs/Subject_35/249.jpg",
    "slider_start": 5,
    "response": 6,
    "task": "slider",
    "trial_type": "image-slider-response",
    "trial_index": 7,
    "time_elapsed": 17585,
    "internal_node_id": "0.0-2.0-1.2",
    "subject_id": "65d63b0717dd79b55e1f5f4e",
    "study_id": "65fc8633011b896607968f94",
    "session_id": "07bwuz44nrh",
    "imagefolder_id": 35
  },
  {
    "_id": "65fdc69f56f63758311b01b3",
    "rt": 5041,
    "stimulus": "imgs/Subject_35/177.jpg",
    "slider_start": 5,
    "response": 6,
    "task": "slider",
    "trial_type": "image-slider-response",
    "trial_index": 9,
    "time_elapsed": 23131,
    "internal_node_id": "0.0-2.0-1.3",
    "subject_id": "65d63b0717dd79b55e1f5f4e",
    "study_id": "65fc8633011b896607968f94",
    "session_id": "07bwuz44nrh",
    "imagefolder_id": 35
  },
  {
    "_id": "65fdc6a156f63758311b01b4",
    "rt": 2156,
    "stimulus": "imgs/Subject_35/p123_scr.jpg",
    "slider_start": 5,
    "response": 0,
    "task": "slider",
    "trial_type": "image-slider-response",
    "trial_index": 11,
    "time_elapsed": 25789,
    "internal_node_id": "0.0-2.0-1.4",
    "subject_id": "65d63b0717dd79b55e1f5f4e",
    "study_id": "65fc8633011b896607968f94",
    "session_id": "07bwuz44nrh",
    "imagefolder_id": 35
  },
  {
    "_id": "65fdc6a556f63758311b01b5",
    "rt": 3023,
    "stimulus": "imgs/Subject_35/185.jpg",
    "slider_start": 5,
    "response": 6,
    "task": "slider",
    "trial_type": "image-slider-response",
    "trial_index": 13,
    "time_elapsed": 29315,
    "internal_node_id": "0.0-2.0-1.5",
    "subject_id": "65d63b0717dd79b55e1f5f4e",
    "study_id": "65fc8633011b896607968f94",
    "session_id": "07bwuz44nrh",
    "imagefolder_id": 35
  },
  {
    "_id": "65fdc6a856f63758311b01b6",
    "rt": 2267,
    "stimulus": "imgs/Subject_35/n83_match_scr.jpg",
    "slider_start": 5,
    "response": 0,
    "task": "slider",
    "trial_type": "image-slider-response",
    "trial_index": 15,
    "time_elapsed": 32086,
    "internal_node_id": "0.0-2.0-1.6",
    "subject_id": "65d63b0717dd79b55e1f5f4e",
    "study_id": "65fc8633011b896607968f94",
    "session_id": "07bwuz44nrh",
    "imagefolder_id": 35
  },
  {
    "_id": "65fdc6aa56f63758311b01b7",
    "rt": 2346,
    "stimulus": "imgs/Subject_35/16.jpg",
    "slider_start": 5,
    "response": 7,
    "task": "slider",
    "trial_type": "image-slider-response",
    "trial_index": 17,
    "time_elapsed": 34936,
    "internal_node_id": "0.0-2.0-1.7",
    "subject_id": "65d63b0717dd79b55e1f5f4e",
    "study_id": "65fc8633011b896607968f94",
    "session_id": "07bwuz44nrh",
    "imagefolder_id": 35
  },
  {
    "_id": "65fdc6ad56f63758311b01b8",
    "rt": 2277,
    "stimulus": "imgs/Subject_35/225.jpg",
    "slider_start": 5,
    "response": 8,
    "task": "slider",
    "trial_type": "image-slider-response",
    "trial_index": 19,
    "time_elapsed": 37716,
    "internal_node_id": "0.0-2.0-1.8",
    "subject_id": "65d63b0717dd79b55e1f5f4e",
    "study_id": "65fc8633011b896607968f94",
    "session_id": "07bwuz44nrh",
    "imagefolder_id": 35
  },
  {
    "_id": "65fdc6b056f63758311b01b9",
    "rt": 2612,
    "stimulus": "imgs/Subject_35/47.jpg",
    "slider_start": 5,
    "response": 8,
    "task": "slider",
    "trial_type": "image-slider-response",
    "trial_index": 21,
    "time_elapsed": 40832,
    "internal_node_id": "0.0-2.0-1.9",
    "subject_id": "65d63b0717dd79b55e1f5f4e",
    "study_id": "65fc8633011b896607968f94",
    "session_id": "07bwuz44nrh",
    "imagefolder_id": 35
  },
  {
    "_id": "65fdc6b456f63758311b01ba",
    "rt": 3246,
    "stimulus": "imgs/Subject_35/n37_match.jpg",
    "slider_start": 5,
    "response": 0,
    "task": "slider",
    "trial_type": "image-slider-response",
    "trial_index": 23,
    "time_elapsed": 44581,
    "internal_node_id": "0.0-2.0-1.10",
    "subject_id": "65d63b0717dd79b55e1f5f4e",
    "study_id": "65fc8633011b896607968f94",
    "session_id": "07bwuz44nrh",
    "imagefolder_id": 35
  },
  {
    "_id": "65fdc6b956f63758311b01bb",
    "rt": 4071,
    "stimulus": "imgs/Subject_35/115.jpg",
    "slider_start": 5,
    "response": 8,
    "task": "slider",
    "trial_type": "image-slider-response",
    "trial_index": 25,
    "time_elapsed": 49156,
    "internal_node_id": "0.0-2.0-1.11",
    "subject_id": "65d63b0717dd79b55e1f5f4e",
    "study_id": "65fc8633011b896607968f94",
    "session_id": "07bwuz44nrh",
    "imagefolder_id": 35
  },
  {
    "_id": "65fdc6bc56f63758311b01bc",
    "rt": 2420,
    "stimulus": "imgs/Subject_35/n128_match_scr.jpg",
    "slider_start": 5,
    "response": 0,
    "task": "slider",
    "trial_type": "image-slider-response",
    "trial_index": 27,
    "time_elapsed": 52079,
    "internal_node_id": "0.0-2.0-1.12",
    "subject_id": "65d63b0717dd79b55e1f5f4e",
    "study_id": "65fc8633011b896607968f94",
    "session_id": "07bwuz44nrh",
    "imagefolder_id": 35
  },
  {
    "_id": "65fdc6bf56f63758311b01bd",
    "rt": 2431,
    "stimulus": "imgs/Subject_35/179.jpg",
    "slider_start": 5,
    "response": 8,
    "task": "slider",
    "trial_type": "image-slider-response",
    "trial_index": 29,
    "time_elapsed": 55014,
    "internal_node_id": "0.0-2.0-1.13",
    "subject_id": "65d63b0717dd79b55e1f5f4e",
    "study_id": "65fc8633011b896607968f94",
    "session_id": "07bwuz44nrh",
    "imagefolder_id": 35
  },
  {
    "_id": "65fdc6c156f63758311b01be",
    "rt": 1901,
    "stimulus": "imgs/Subject_35/p46.jpg",
    "slider_start": 5,
    "response": 8,
    "task": "slider",
    "trial_type": "image-slider-response",
    "trial_index": 31,
    "time_elapsed": 57418,
    "internal_node_id": "0.0-2.0-1.14",
    "subject_id": "65d63b0717dd79b55e1f5f4e",
    "study_id": "65fc8633011b896607968f94",
    "session_id": "07bwuz44nrh",
    "imagefolder_id": 35
  },
  {
    "_id": "65fdc6c456f63758311b01bf",
    "rt": 3028,
    "stimulus": "imgs/Subject_35/257.jpg",
    "slider_start": 5,
    "response": 7,
    "task": "slider",
    "trial_type": "image-slider-response",
    "trial_index": 33,
    "time_elapsed": 60950,
    "internal_node_id": "0.0-2.0-1.15",
    "subject_id": "65d63b0717dd79b55e1f5f4e",
    "study_id": "65fc8633011b896607968f94",
    "session_id": "07bwuz44nrh",
    "imagefolder_id": 35
  },
  {
    "_id": "65fdc6c856f63758311b01c0",
    "rt": 2785,
    "stimulus": "imgs/Subject_35/116.jpg",
    "slider_start": 5,
    "response": 6,
    "task": "slider",
    "trial_type": "image-slider-response",
    "trial_index": 35,
    "time_elapsed": 64239,
    "internal_node_id": "0.0-2.0-1.16",
    "subject_id": "65d63b0717dd79b55e1f5f4e",
    "study_id": "65fc8633011b896607968f94",
    "session_id": "07bwuz44nrh",
    "imagefolder_id": 35
  },
  {
    "_id": "65fdc6cb56f63758311b01c1",
    "rt": 2438,
    "stimulus": "imgs/Subject_35/213.jpg",
    "slider_start": 5,
    "response": 2,
    "task": "slider",
    "trial_type": "image-slider-response",
    "trial_index": 37,
    "time_elapsed": 67181,
    "internal_node_id": "0.0-2.0-1.17",
    "subject_id": "65d63b0717dd79b55e1f5f4e",
    "study_id": "65fc8633011b896607968f94",
    "session_id": "07bwuz44nrh",
    "imagefolder_id": 35
  },
  {
    "_id": "65fdc6cf56f63758311b01c2",
    "rt": 3385,
    "stimulus": "imgs/Subject_35/n113_match_3.jpg",
    "slider_start": 5,
    "response": 0,
    "task": "slider",
    "trial_type": "image-slider-response",
    "trial_index": 39,
    "time_elapsed": 71070,
    "internal_node_id": "0.0-2.0-1.18",
    "subject_id": "65d63b0717dd79b55e1f5f4e",
    "study_id": "65fc8633011b896607968f94",
    "session_id": "07bwuz44nrh",
    "imagefolder_id": 35
  },
  {
    "_id": "65fdc6d356f63758311b01c3",
    "rt": 4410,
    "stimulus": "imgs/Subject_35/p155.jpg",
    "slider_start": 5,
    "response": 7,
    "task": "slider",
    "trial_type": "image-slider-response",
    "trial_index": 41,
    "time_elapsed": 75984,
    "internal_node_id": "0.0-2.0-1.19",
    "subject_id": "65d63b0717dd79b55e1f5f4e",
    "study_id": "65fc8633011b896607968f94",
    "session_id": "07bwuz44nrh",
    "imagefolder_id": 35
  },
  {
    "_id": "65fdc6d656f63758311b01c4",
    "rt": 2114,
    "stimulus": "imgs/Subject_35/162.jpg",
    "slider_start": 5,
    "response": 6,
    "task": "slider",
    "trial_type": "image-slider-response",
    "trial_index": 43,
    "time_elapsed": 78603,
    "internal_node_id": "0.0-2.0-1.20",
    "subject_id": "65d63b0717dd79b55e1f5f4e",
    "study_id": "65fc8633011b896607968f94",
    "session_id": "07bwuz44nrh",
    "imagefolder_id": 35
  },
  {
    "_id": "65fdc6d956f63758311b01c5",
    "rt": 2333,
    "stimulus": "imgs/Subject_35/p59.jpg",
    "slider_start": 5,
    "response": 8,
    "task": "slider",
    "trial_type": "image-slider-response",
    "trial_index": 45,
    "time_elapsed": 81440,
    "internal_node_id": "0.0-2.0-1.21",
    "subject_id": "65d63b0717dd79b55e1f5f4e",
    "study_id": "65fc8633011b896607968f94",
    "session_id": "07bwuz44nrh",
    "imagefolder_id": 35
  },
  {
    "_id": "65fdc6dd56f63758311b01c6",
    "rt": 3407,
    "stimulus": "imgs/Subject_35/p08_1.jpg",
    "slider_start": 5,
    "response": 4,
    "task": "slider",
    "trial_type": "image-slider-response",
    "trial_index": 47,
    "time_elapsed": 85350,
    "internal_node_id": "0.0-2.0-1.22",
    "subject_id": "65d63b0717dd79b55e1f5f4e",
    "study_id": "65fc8633011b896607968f94",
    "session_id": "07bwuz44nrh",
    "imagefolder_id": 35
  },
  {
    "_id": "65fdc6e256f63758311b01c7",
    "rt": 4633,
    "stimulus": "imgs/Subject_35/p142_scr.jpg",
    "slider_start": 5,
    "response": 3,
    "task": "slider",
    "trial_type": "image-slider-response",
    "trial_index": 49,
    "time_elapsed": 90486,
    "internal_node_id": "0.0-2.0-1.23",
    "subject_id": "65d63b0717dd79b55e1f5f4e",
    "study_id": "65fc8633011b896607968f94",
    "session_id": "07bwuz44nrh",
    "imagefolder_id": 35
  },
  {
    "_id": "65fdc6e756f63758311b01c8",
    "rt": 4600,
    "stimulus": "imgs/Subject_35/174.jpg",
    "slider_start": 5,
    "response": 1,
    "task": "slider",
    "trial_type": "image-slider-response",
    "trial_index": 51,
    "time_elapsed": 95589,
    "internal_node_id": "0.0-2.0-1.24",
    "subject_id": "65d63b0717dd79b55e1f5f4e",
    "study_id": "65fc8633011b896607968f94",
    "session_id": "07bwuz44nrh",
    "imagefolder_id": 35
  },
  {
    "_id": "65fdc6eb56f63758311b01c9",
    "rt": 3469,
    "stimulus": "imgs/Subject_35/p141_scr.jpg",
    "slider_start": 5,
    "response": 7,
    "task": "slider",
    "trial_type": "image-slider-response",
    "trial_index": 53,
    "time_elapsed": 99562,
    "internal_node_id": "0.0-2.0-1.25",
    "subject_id": "65d63b0717dd79b55e1f5f4e",
    "study_id": "65fc8633011b896607968f94",
    "session_id": "07bwuz44nrh",
    "imagefolder_id": 35
  },
  {
    "_id": "65fdc6f056f63758311b01ca",
    "rt": 4027,
    "stimulus": "imgs/Subject_35/p135_scr.jpg",
    "slider_start": 5,
    "response": 4,
    "task": "slider",
    "trial_type": "image-slider-response",
    "trial_index": 55,
    "time_elapsed": 104093,
    "internal_node_id": "0.0-2.0-1.26",
    "subject_id": "65d63b0717dd79b55e1f5f4e",
    "study_id": "65fc8633011b896607968f94",
    "session_id": "07bwuz44nrh",
    "imagefolder_id": 35
  },
  {
    "_id": "65fdc6f256f63758311b01cb",
    "rt": 2109,
    "stimulus": "imgs/Subject_35/p20_4.jpg",
    "slider_start": 5,
    "response": 0,
    "task": "slider",
    "trial_type": "image-slider-response",
    "trial_index": 57,
    "time_elapsed": 106705,
    "internal_node_id": "0.0-2.0-1.27",
    "subject_id": "65d63b0717dd79b55e1f5f4e",
    "study_id": "65fc8633011b896607968f94",
    "session_id": "07bwuz44nrh",
    "imagefolder_id": 35
  },
  {
    "_id": "65fdc6f756f63758311b01cc",
    "rt": 4319,
    "stimulus": "imgs/Subject_35/n08_match_1.jpg",
    "slider_start": 5,
    "response": 0,
    "task": "slider",
    "trial_type": "image-slider-response",
    "trial_index": 59,
    "time_elapsed": 111528,
    "internal_node_id": "0.0-2.0-1.28",
    "subject_id": "65d63b0717dd79b55e1f5f4e",
    "study_id": "65fc8633011b896607968f94",
    "session_id": "07bwuz44nrh",
    "imagefolder_id": 35
  },
  {
    "_id": "65fdc6fa56f63758311b01cd",
    "rt": 2382,
    "stimulus": "imgs/Subject_35/p114_4.jpg",
    "slider_start": 5,
    "response": 0,
    "task": "slider",
    "trial_type": "image-slider-response",
    "trial_index": 61,
    "time_elapsed": 114414,
    "internal_node_id": "0.0-2.0-1.29",
    "subject_id": "65d63b0717dd79b55e1f5f4e",
    "study_id": "65fc8633011b896607968f94",
    "session_id": "07bwuz44nrh",
    "imagefolder_id": 35
  },
  {
    "_id": "65fdc70256f63758311b01ce",
    "rt": 7458,
    "stimulus": "imgs/Subject_35/18.jpg",
    "slider_start": 5,
    "response": 8,
    "task": "slider",
    "trial_type": "image-slider-response",
    "trial_index": 63,
    "time_elapsed": 122376,
    "internal_node_id": "0.0-2.0-1.30",
    "subject_id": "65d63b0717dd79b55e1f5f4e",
    "study_id": "65fc8633011b896607968f94",
    "session_id": "07bwuz44nrh",
    "imagefolder_id": 35
  },
  {
    "_id": "65fdc70556f63758311b01cf",
    "rt": 2973,
    "stimulus": "imgs/Subject_35/n142_match_scr.jpg",
    "slider_start": 5,
    "response": 0,
    "task": "slider",
    "trial_type": "image-slider-response",
    "trial_index": 65,
    "time_elapsed": 125852,
    "internal_node_id": "0.0-2.0-1.31",
    "subject_id": "65d63b0717dd79b55e1f5f4e",
    "study_id": "65fc8633011b896607968f94",
    "session_id": "07bwuz44nrh",
    "imagefolder_id": 35
  },
  {
    "_id": "65fdc70956f63758311b01d0",
    "rt": 3289,
    "stimulus": "imgs/Subject_35/p108_scr.jpg",
    "slider_start": 5,
    "response": 3,
    "task": "slider",
    "trial_type": "image-slider-response",
    "trial_index": 67,
    "time_elapsed": 129645,
    "internal_node_id": "0.0-2.0-1.32",
    "subject_id": "65d63b0717dd79b55e1f5f4e",
    "study_id": "65fc8633011b896607968f94",
    "session_id": "07bwuz44nrh",
    "imagefolder_id": 35
  },
  {
    "_id": "65fdc70c56f63758311b01d1",
    "rt": 2821,
    "stimulus": "imgs/Subject_35/220.jpg",
    "slider_start": 5,
    "response": 4,
    "task": "slider",
    "trial_type": "image-slider-response",
    "trial_index": 69,
    "time_elapsed": 132969,
    "internal_node_id": "0.0-2.0-1.33",
    "subject_id": "65d63b0717dd79b55e1f5f4e",
    "study_id": "65fc8633011b896607968f94",
    "session_id": "07bwuz44nrh",
    "imagefolder_id": 35
  },
  {
    "_id": "65fdc71456f63758311b01d2",
    "rt": 7179,
    "stimulus": "imgs/Subject_35/221.jpg",
    "slider_start": 5,
    "response": 7,
    "task": "slider",
    "trial_type": "image-slider-response",
    "trial_index": 71,
    "time_elapsed": 140652,
    "internal_node_id": "0.0-2.0-1.34",
    "subject_id": "65d63b0717dd79b55e1f5f4e",
    "study_id": "65fc8633011b896607968f94",
    "session_id": "07bwuz44nrh",
    "imagefolder_id": 35
  },
  {
    "_id": "65fdc71856f63758311b01d3",
    "rt": 3214,
    "stimulus": "imgs/Subject_35/n126_match_2.jpg",
    "slider_start": 5,
    "response": 0,
    "task": "slider",
    "trial_type": "image-slider-response",
    "trial_index": 73,
    "time_elapsed": 144370,
    "internal_node_id": "0.0-2.0-1.35",
    "subject_id": "65d63b0717dd79b55e1f5f4e",
    "study_id": "65fc8633011b896607968f94",
    "session_id": "07bwuz44nrh",
    "imagefolder_id": 35
  },
  {
    "_id": "65fdc71c56f63758311b01d4",
    "rt": 3798,
    "stimulus": "imgs/Subject_35/n119_match_1.jpg",
    "slider_start": 5,
    "response": 0,
    "task": "slider",
    "trial_type": "image-slider-response",
    "trial_index": 75,
    "time_elapsed": 148672,
    "internal_node_id": "0.0-2.0-1.36",
    "subject_id": "65d63b0717dd79b55e1f5f4e",
    "study_id": "65fc8633011b896607968f94",
    "session_id": "07bwuz44nrh",
    "imagefolder_id": 35
  },
  {
    "_id": "65fdc72056f63758311b01d5",
    "rt": 2879,
    "stimulus": "imgs/Subject_35/n100_match.jpg",
    "slider_start": 5,
    "response": 0,
    "task": "slider",
    "trial_type": "image-slider-response",
    "trial_index": 77,
    "time_elapsed": 152055,
    "internal_node_id": "0.0-2.0-1.37",
    "subject_id": "65d63b0717dd79b55e1f5f4e",
    "study_id": "65fc8633011b896607968f94",
    "session_id": "07bwuz44nrh",
    "imagefolder_id": 35
  },
  {
    "_id": "65fdc72356f63758311b01d6",
    "rt": 3079,
    "stimulus": "imgs/Subject_35/204.jpg",
    "slider_start": 5,
    "response": 7,
    "task": "slider",
    "trial_type": "image-slider-response",
    "trial_index": 79,
    "time_elapsed": 155639,
    "internal_node_id": "0.0-2.0-1.38",
    "subject_id": "65d63b0717dd79b55e1f5f4e",
    "study_id": "65fc8633011b896607968f94",
    "session_id": "07bwuz44nrh",
    "imagefolder_id": 35
  },
  {
    "_id": "65fdc72756f63758311b01d7",
    "rt": 3190,
    "stimulus": "imgs/Subject_35/p10_2.jpg",
    "slider_start": 5,
    "response": 6,
    "task": "slider",
    "trial_type": "image-slider-response",
    "trial_index": 81,
    "time_elapsed": 159332,
    "internal_node_id": "0.0-2.0-1.39",
    "subject_id": "65d63b0717dd79b55e1f5f4e",
    "study_id": "65fc8633011b896607968f94",
    "session_id": "07bwuz44nrh",
    "imagefolder_id": 35
  },
  {
    "_id": "65fdc72b56f63758311b01d8",
    "rt": 4027,
    "stimulus": "imgs/Subject_35/89.jpg",
    "slider_start": 5,
    "response": 7,
    "task": "slider",
    "trial_type": "image-slider-response",
    "trial_index": 83,
    "time_elapsed": 163864,
    "internal_node_id": "0.0-2.0-1.40",
    "subject_id": "65d63b0717dd79b55e1f5f4e",
    "study_id": "65fc8633011b896607968f94",
    "session_id": "07bwuz44nrh",
    "imagefolder_id": 35
  },
  {
    "_id": "65fdc72e56f63758311b01d9",
    "rt": 2240,
    "stimulus": "imgs/Subject_35/93.jpg",
    "slider_start": 5,
    "response": 8,
    "task": "slider",
    "trial_type": "image-slider-response",
    "trial_index": 85,
    "time_elapsed": 166607,
    "internal_node_id": "0.0-2.0-1.41",
    "subject_id": "65d63b0717dd79b55e1f5f4e",
    "study_id": "65fc8633011b896607968f94",
    "session_id": "07bwuz44nrh",
    "imagefolder_id": 35
  },
  {
    "_id": "65fdc73156f63758311b01da",
    "rt": 2298,
    "stimulus": "imgs/Subject_35/p159.jpg",
    "slider_start": 5,
    "response": 8,
    "task": "slider",
    "trial_type": "image-slider-response",
    "trial_index": 87,
    "time_elapsed": 169408,
    "internal_node_id": "0.0-2.0-1.42",
    "subject_id": "65d63b0717dd79b55e1f5f4e",
    "study_id": "65fc8633011b896607968f94",
    "session_id": "07bwuz44nrh",
    "imagefolder_id": 35
  },
  {
    "_id": "65fdc73456f63758311b01db",
    "rt": 2220,
    "stimulus": "imgs/Subject_35/201.jpg",
    "slider_start": 5,
    "response": 8,
    "task": "slider",
    "trial_type": "image-slider-response",
    "trial_index": 89,
    "time_elapsed": 172132,
    "internal_node_id": "0.0-2.0-1.43",
    "subject_id": "65d63b0717dd79b55e1f5f4e",
    "study_id": "65fc8633011b896607968f94",
    "session_id": "07bwuz44nrh",
    "imagefolder_id": 35
  },
  {
    "_id": "65fdc73756f63758311b01dc",
    "rt": 2412,
    "stimulus": "imgs/Subject_35/166.jpg",
    "slider_start": 5,
    "response": 9,
    "task": "slider",
    "trial_type": "image-slider-response",
    "trial_index": 91,
    "time_elapsed": 175047,
    "internal_node_id": "0.0-2.0-1.44",
    "subject_id": "65d63b0717dd79b55e1f5f4e",
    "study_id": "65fc8633011b896607968f94",
    "session_id": "07bwuz44nrh",
    "imagefolder_id": 35
  },
  {
    "_id": "65fdc73a56f63758311b01dd",
    "rt": 3372,
    "stimulus": "imgs/Subject_35/252.jpg",
    "slider_start": 5,
    "response": 6,
    "task": "slider",
    "trial_type": "image-slider-response",
    "trial_index": 93,
    "time_elapsed": 178923,
    "internal_node_id": "0.0-2.0-1.45",
    "subject_id": "65d63b0717dd79b55e1f5f4e",
    "study_id": "65fc8633011b896607968f94",
    "session_id": "07bwuz44nrh",
    "imagefolder_id": 35
  },
  {
    "_id": "65fdc73d56f63758311b01de",
    "rt": 2518,
    "stimulus": "imgs/Subject_35/n34_match_1.jpg",
    "slider_start": 5,
    "response": 0,
    "task": "slider",
    "trial_type": "image-slider-response",
    "trial_index": 95,
    "time_elapsed": 181944,
    "internal_node_id": "0.0-2.0-1.46",
    "subject_id": "65d63b0717dd79b55e1f5f4e",
    "study_id": "65fc8633011b896607968f94",
    "session_id": "07bwuz44nrh",
    "imagefolder_id": 35
  },
  {
    "_id": "65fdc74156f63758311b01df",
    "rt": 3271,
    "stimulus": "imgs/Subject_35/n143_match_4.jpg",
    "slider_start": 5,
    "response": 0,
    "task": "slider",
    "trial_type": "image-slider-response",
    "trial_index": 97,
    "time_elapsed": 185720,
    "internal_node_id": "0.0-2.0-1.47",
    "subject_id": "65d63b0717dd79b55e1f5f4e",
    "study_id": "65fc8633011b896607968f94",
    "session_id": "07bwuz44nrh",
    "imagefolder_id": 35
  },
  {
    "_id": "65fdc74456f63758311b01e0",
    "rt": 2387,
    "stimulus": "imgs/Subject_35/151.jpg",
    "slider_start": 5,
    "response": 0,
    "task": "slider",
    "trial_type": "image-slider-response",
    "trial_index": 99,
    "time_elapsed": 188611,
    "internal_node_id": "0.0-2.0-1.48",
    "subject_id": "65d63b0717dd79b55e1f5f4e",
    "study_id": "65fc8633011b896607968f94",
    "session_id": "07bwuz44nrh",
    "imagefolder_id": 35
  },
  {
    "_id": "65fdc74856f63758311b01e1",
    "rt": 3533,
    "stimulus": "imgs/Subject_35/n11_match_3.jpg",
    "slider_start": 5,
    "response": 0,
    "task": "slider",
    "trial_type": "image-slider-response",
    "trial_index": 101,
    "time_elapsed": 192647,
    "internal_node_id": "0.0-2.0-1.49",
    "subject_id": "65d63b0717dd79b55e1f5f4e",
    "study_id": "65fc8633011b896607968f94",
    "session_id": "07bwuz44nrh",
    "imagefolder_id": 35
  },
  {
    "_id": "65fdc74d56f63758311b01e2",
    "rt": 4579,
    "stimulus": "imgs/Subject_35/35.jpg",
    "slider_start": 5,
    "response": 7,
    "task": "slider",
    "trial_type": "image-slider-response",
    "trial_index": 103,
    "time_elapsed": 197729,
    "internal_node_id": "0.0-2.0-1.50",
    "subject_id": "65d63b0717dd79b55e1f5f4e",
    "study_id": "65fc8633011b896607968f94",
    "session_id": "07bwuz44nrh",
    "imagefolder_id": 35
  },
  {
    "_id": "65fdc75156f63758311b01e3",
    "rt": 3704,
    "stimulus": "imgs/Subject_35/p37.jpg",
    "slider_start": 5,
    "response": 10,
    "task": "slider",
    "trial_type": "image-slider-response",
    "trial_index": 105,
    "time_elapsed": 201937,
    "internal_node_id": "0.0-2.0-1.51",
    "subject_id": "65d63b0717dd79b55e1f5f4e",
    "study_id": "65fc8633011b896607968f94",
    "session_id": "07bwuz44nrh",
    "imagefolder_id": 35
  },
  {
    "_id": "65fdc75456f63758311b01e4",
    "rt": 2471,
    "stimulus": "imgs/Subject_35/n43_match.jpg",
    "slider_start": 5,
    "response": 0,
    "task": "slider",
    "trial_type": "image-slider-response",
    "trial_index": 107,
    "time_elapsed": 204912,
    "internal_node_id": "0.0-2.0-1.52",
    "subject_id": "65d63b0717dd79b55e1f5f4e",
    "study_id": "65fc8633011b896607968f94",
    "session_id": "07bwuz44nrh",
    "imagefolder_id": 35
  },
  {
    "_id": "65fdc75756f63758311b01e5",
    "rt": 2357,
    "stimulus": "imgs/Subject_35/168.jpg",
    "slider_start": 5,
    "response": 9,
    "task": "slider",
    "trial_type": "image-slider-response",
    "trial_index": 109,
    "time_elapsed": 207772,
    "internal_node_id": "0.0-2.0-1.53",
    "subject_id": "65d63b0717dd79b55e1f5f4e",
    "study_id": "65fc8633011b896607968f94",
    "session_id": "07bwuz44nrh",
    "imagefolder_id": 35
  },
  {
    "_id": "65fdc75b56f63758311b01e6",
    "rt": 2836,
    "stimulus": "imgs/Subject_35/n59_match.jpg",
    "slider_start": 5,
    "response": 0,
    "task": "slider",
    "trial_type": "image-slider-response",
    "trial_index": 111,
    "time_elapsed": 211112,
    "internal_node_id": "0.0-2.0-1.54",
    "subject_id": "65d63b0717dd79b55e1f5f4e",
    "study_id": "65fc8633011b896607968f94",
    "session_id": "07bwuz44nrh",
    "imagefolder_id": 35
  },
  {
    "_id": "65fdc75e56f63758311b01e7",
    "rt": 2999,
    "stimulus": "imgs/Subject_35/p150_scr.jpg",
    "slider_start": 5,
    "response": 4,
    "task": "slider",
    "trial_type": "image-slider-response",
    "trial_index": 113,
    "time_elapsed": 214616,
    "internal_node_id": "0.0-2.0-1.55",
    "subject_id": "65d63b0717dd79b55e1f5f4e",
    "study_id": "65fc8633011b896607968f94",
    "session_id": "07bwuz44nrh",
    "imagefolder_id": 35
  },
  {
    "_id": "65fdc76156f63758311b01e8",
    "rt": 2509,
    "stimulus": "imgs/Subject_35/210.jpg",
    "slider_start": 5,
    "response": 7,
    "task": "slider",
    "trial_type": "image-slider-response",
    "trial_index": 115,
    "time_elapsed": 217628,
    "internal_node_id": "0.0-2.0-1.56",
    "subject_id": "65d63b0717dd79b55e1f5f4e",
    "study_id": "65fc8633011b896607968f94",
    "session_id": "07bwuz44nrh",
    "imagefolder_id": 35
  },
  {
    "_id": "65fdc76456f63758311b01e9",
    "rt": 2490,
    "stimulus": "imgs/Subject_35/p119_1.jpg",
    "slider_start": 5,
    "response": 6,
    "task": "slider",
    "trial_type": "image-slider-response",
    "trial_index": 117,
    "time_elapsed": 220622,
    "internal_node_id": "0.0-2.0-1.57",
    "subject_id": "65d63b0717dd79b55e1f5f4e",
    "study_id": "65fc8633011b896607968f94",
    "session_id": "07bwuz44nrh",
    "imagefolder_id": 35
  },
  {
    "_id": "65fdc76756f63758311b01ea",
    "rt": 2399,
    "stimulus": "imgs/Subject_35/n123_match_scr.jpg",
    "slider_start": 5,
    "response": 0,
    "task": "slider",
    "trial_type": "image-slider-response",
    "trial_index": 119,
    "time_elapsed": 223524,
    "internal_node_id": "0.0-2.0-1.58",
    "subject_id": "65d63b0717dd79b55e1f5f4e",
    "study_id": "65fc8633011b896607968f94",
    "session_id": "07bwuz44nrh",
    "imagefolder_id": 35
  },
  {
    "_id": "65fdc76b56f63758311b01eb",
    "rt": 3133,
    "stimulus": "imgs/Subject_35/n141_match_scr.jpg",
    "slider_start": 5,
    "response": 0,
    "task": "slider",
    "trial_type": "image-slider-response",
    "trial_index": 121,
    "time_elapsed": 227160,
    "internal_node_id": "0.0-2.0-1.59",
    "subject_id": "65d63b0717dd79b55e1f5f4e",
    "study_id": "65fc8633011b896607968f94",
    "session_id": "07bwuz44nrh",
    "imagefolder_id": 35
  },
  {
    "_id": "65fdc76e56f63758311b01ec",
    "rt": 2632,
    "stimulus": "imgs/Subject_35/p81.jpg",
    "slider_start": 5,
    "response": 6,
    "task": "slider",
    "trial_type": "image-slider-response",
    "trial_index": 123,
    "time_elapsed": 230296,
    "internal_node_id": "0.0-2.0-1.60",
    "subject_id": "65d63b0717dd79b55e1f5f4e",
    "study_id": "65fc8633011b896607968f94",
    "session_id": "07bwuz44nrh",
    "imagefolder_id": 35
  },
  {
    "_id": "65fdc77156f63758311b01ed",
    "rt": 2676,
    "stimulus": "imgs/Subject_35/n135_match_scr.jpg",
    "slider_start": 5,
    "response": 0,
    "task": "slider",
    "trial_type": "image-slider-response",
    "trial_index": 125,
    "time_elapsed": 233474,
    "internal_node_id": "0.0-2.0-1.61",
    "subject_id": "65d63b0717dd79b55e1f5f4e",
    "study_id": "65fc8633011b896607968f94",
    "session_id": "07bwuz44nrh",
    "imagefolder_id": 35
  },
  {
    "_id": "65fdc77556f63758311b01ee",
    "rt": 3751,
    "stimulus": "imgs/Subject_35/n20_match_4.jpg",
    "slider_start": 5,
    "response": 0,
    "task": "slider",
    "trial_type": "image-slider-response",
    "trial_index": 127,
    "time_elapsed": 237728,
    "internal_node_id": "0.0-2.0-1.62",
    "subject_id": "65d63b0717dd79b55e1f5f4e",
    "study_id": "65fc8633011b896607968f94",
    "session_id": "07bwuz44nrh",
    "imagefolder_id": 35
  },
  {
    "_id": "65fdc77956f63758311b01ef",
    "rt": 2864,
    "stimulus": "imgs/Subject_35/n108_match_scr.jpg",
    "slider_start": 5,
    "response": 1,
    "task": "slider",
    "trial_type": "image-slider-response",
    "trial_index": 129,
    "time_elapsed": 241096,
    "internal_node_id": "0.0-2.0-1.63",
    "subject_id": "65d63b0717dd79b55e1f5f4e",
    "study_id": "65fc8633011b896607968f94",
    "session_id": "07bwuz44nrh",
    "imagefolder_id": 35
  },
  {
    "_id": "65fdc78256f63758311b01f0",
    "rt": 8563,
    "stimulus": "imgs/Subject_35/n155_match.jpg",
    "slider_start": 5,
    "response": 6,
    "task": "slider",
    "trial_type": "image-slider-response",
    "trial_index": 131,
    "time_elapsed": 250162,
    "internal_node_id": "0.0-2.0-1.64",
    "subject_id": "65d63b0717dd79b55e1f5f4e",
    "study_id": "65fc8633011b896607968f94",
    "session_id": "07bwuz44nrh",
    "imagefolder_id": 35
  },
  {
    "_id": "65fdc78756f63758311b01f1",
    "rt": 4548,
    "stimulus": "imgs/Subject_35/p128_scr.jpg",
    "slider_start": 5,
    "response": 1,
    "task": "slider",
    "trial_type": "image-slider-response",
    "trial_index": 133,
    "time_elapsed": 255213,
    "internal_node_id": "0.0-2.0-1.65",
    "subject_id": "65d63b0717dd79b55e1f5f4e",
    "study_id": "65fc8633011b896607968f94",
    "session_id": "07bwuz44nrh",
    "imagefolder_id": 35
  },
  {
    "_id": "65fdc78b56f63758311b01f2",
    "rt": 3403,
    "stimulus": "imgs/Subject_35/192.jpg",
    "slider_start": 5,
    "response": 7,
    "task": "slider",
    "trial_type": "image-slider-response",
    "trial_index": 135,
    "time_elapsed": 259121,
    "internal_node_id": "0.0-2.0-1.66",
    "subject_id": "65d63b0717dd79b55e1f5f4e",
    "study_id": "65fc8633011b896607968f94",
    "session_id": "07bwuz44nrh",
    "imagefolder_id": 35
  },
  {
    "_id": "65fdc78d56f63758311b01f3",
    "rt": 2119,
    "stimulus": "imgs/Subject_35/n127_match_3.jpg",
    "slider_start": 5,
    "response": 0,
    "task": "slider",
    "trial_type": "image-slider-response",
    "trial_index": 137,
    "time_elapsed": 261742,
    "internal_node_id": "0.0-2.0-1.67",
    "subject_id": "65d63b0717dd79b55e1f5f4e",
    "study_id": "65fc8633011b896607968f94",
    "session_id": "07bwuz44nrh",
    "imagefolder_id": 35
  },
  {
    "_id": "65fdc79156f63758311b01f4",
    "rt": 3401,
    "stimulus": "imgs/Subject_35/p80.jpg",
    "slider_start": 5,
    "response": 6,
    "task": "slider",
    "trial_type": "image-slider-response",
    "trial_index": 139,
    "time_elapsed": 265645,
    "internal_node_id": "0.0-2.0-1.68",
    "subject_id": "65d63b0717dd79b55e1f5f4e",
    "study_id": "65fc8633011b896607968f94",
    "session_id": "07bwuz44nrh",
    "imagefolder_id": 35
  },
  {
    "_id": "65fdc79456f63758311b01f5",
    "rt": 2624,
    "stimulus": "imgs/Subject_35/216.jpg",
    "slider_start": 5,
    "response": 7,
    "task": "slider",
    "trial_type": "image-slider-response",
    "trial_index": 141,
    "time_elapsed": 268773,
    "internal_node_id": "0.0-2.0-1.69",
    "subject_id": "65d63b0717dd79b55e1f5f4e",
    "study_id": "65fc8633011b896607968f94",
    "session_id": "07bwuz44nrh",
    "imagefolder_id": 35
  },
  {
    "_id": "65fdc79756f63758311b01f6",
    "rt": 2351,
    "stimulus": "imgs/Subject_35/n147_match.jpg",
    "slider_start": 5,
    "response": 0,
    "task": "slider",
    "trial_type": "image-slider-response",
    "trial_index": 143,
    "time_elapsed": 271626,
    "internal_node_id": "0.0-2.0-1.70",
    "subject_id": "65d63b0717dd79b55e1f5f4e",
    "study_id": "65fc8633011b896607968f94",
    "session_id": "07bwuz44nrh",
    "imagefolder_id": 35
  },
  {
    "_id": "65fdc79b56f63758311b01f7",
    "rt": 2922,
    "stimulus": "imgs/Subject_35/258.jpg",
    "slider_start": 5,
    "response": 6,
    "task": "slider",
    "trial_type": "image-slider-response",
    "trial_index": 145,
    "time_elapsed": 275051,
    "internal_node_id": "0.0-2.0-1.71",
    "subject_id": "65d63b0717dd79b55e1f5f4e",
    "study_id": "65fc8633011b896607968f94",
    "session_id": "07bwuz44nrh",
    "imagefolder_id": 35
  },
  {
    "_id": "65fdc79f56f63758311b01f8",
    "rt": 4424,
    "stimulus": "imgs/Subject_35/n46_match.jpg",
    "slider_start": 5,
    "response": 0,
    "task": "slider",
    "trial_type": "image-slider-response",
    "trial_index": 147,
    "time_elapsed": 279980,
    "internal_node_id": "0.0-2.0-1.72",
    "subject_id": "65d63b0717dd79b55e1f5f4e",
    "study_id": "65fc8633011b896607968f94",
    "session_id": "07bwuz44nrh",
    "imagefolder_id": 35
  },
  {
    "_id": "65fdc7a556f63758311b01f9",
    "rt": 4623,
    "stimulus": "imgs/Subject_35/189.jpg",
    "slider_start": 5,
    "response": 8,
    "task": "slider",
    "trial_type": "image-slider-response",
    "trial_index": 149,
    "time_elapsed": 285107,
    "internal_node_id": "0.0-2.0-1.73",
    "subject_id": "65d63b0717dd79b55e1f5f4e",
    "study_id": "65fc8633011b896607968f94",
    "session_id": "07bwuz44nrh",
    "imagefolder_id": 35
  },
  {
    "_id": "65fdc7af56f63758311b01fa",
    "rt": 9911,
    "stimulus": "imgs/Subject_35/p83_scr.jpg",
    "slider_start": 5,
    "response": 0,
    "task": "slider",
    "trial_type": "image-slider-response",
    "trial_index": 151,
    "time_elapsed": 295523,
    "internal_node_id": "0.0-2.0-1.74",
    "subject_id": "65d63b0717dd79b55e1f5f4e",
    "study_id": "65fc8633011b896607968f94",
    "session_id": "07bwuz44nrh",
    "imagefolder_id": 35
  },
  {
    "_id": "65fdc7b456f63758311b01fb",
    "rt": 4352,
    "stimulus": "imgs/Subject_35/n10_match_2.jpg",
    "slider_start": 5,
    "response": 0,
    "task": "slider",
    "trial_type": "image-slider-response",
    "trial_index": 153,
    "time_elapsed": 300377,
    "internal_node_id": "0.0-2.0-1.75",
    "subject_id": "65d63b0717dd79b55e1f5f4e",
    "study_id": "65fc8633011b896607968f94",
    "session_id": "07bwuz44nrh",
    "imagefolder_id": 35
  },
  {
    "_id": "65fdc7b956f63758311b01fc",
    "rt": 5019,
    "stimulus": "imgs/Subject_35/239.jpg",
    "slider_start": 5,
    "response": 8,
    "task": "slider",
    "trial_type": "image-slider-response",
    "trial_index": 155,
    "time_elapsed": 305899,
    "internal_node_id": "0.0-2.0-1.76",
    "subject_id": "65d63b0717dd79b55e1f5f4e",
    "study_id": "65fc8633011b896607968f94",
    "session_id": "07bwuz44nrh",
    "imagefolder_id": 35
  },
  {
    "_id": "65fdc7bc56f63758311b01fd",
    "rt": 2531,
    "stimulus": "imgs/Subject_35/p97_2.jpg",
    "slider_start": 5,
    "response": 6,
    "task": "slider",
    "trial_type": "image-slider-response",
    "trial_index": 157,
    "time_elapsed": 308934,
    "internal_node_id": "0.0-2.0-1.77",
    "subject_id": "65d63b0717dd79b55e1f5f4e",
    "study_id": "65fc8633011b896607968f94",
    "session_id": "07bwuz44nrh",
    "imagefolder_id": 35
  },
  {
    "_id": "65fdc7c756f63758311b01fe",
    "rt": 10401,
    "stimulus": "imgs/Subject_35/p126_2.jpg",
    "slider_start": 5,
    "response": 3,
    "task": "slider",
    "trial_type": "image-slider-response",
    "trial_index": 159,
    "time_elapsed": 319838,
    "internal_node_id": "0.0-2.0-1.78",
    "subject_id": "65d63b0717dd79b55e1f5f4e",
    "study_id": "65fc8633011b896607968f94",
    "session_id": "07bwuz44nrh",
    "imagefolder_id": 35
  },
  {
    "_id": "65fdc7cc56f63758311b01ff",
    "rt": 4230,
    "stimulus": "imgs/Subject_35/240.jpg",
    "slider_start": 5,
    "response": 8,
    "task": "slider",
    "trial_type": "image-slider-response",
    "trial_index": 161,
    "time_elapsed": 324574,
    "internal_node_id": "0.0-2.0-1.79",
    "subject_id": "65d63b0717dd79b55e1f5f4e",
    "study_id": "65fc8633011b896607968f94",
    "session_id": "07bwuz44nrh",
    "imagefolder_id": 35
  },
  {
    "_id": "65fdc7d356f63758311b0200",
    "rt": 6625,
    "stimulus": "imgs/Subject_35/242.jpg",
    "slider_start": 5,
    "response": 5,
    "task": "slider",
    "trial_type": "image-slider-response",
    "trial_index": 163,
    "time_elapsed": 331703,
    "internal_node_id": "0.0-2.0-1.80",
    "subject_id": "65d63b0717dd79b55e1f5f4e",
    "study_id": "65fc8633011b896607968f94",
    "session_id": "07bwuz44nrh",
    "imagefolder_id": 35
  },
  {
    "_id": "65fdc7d656f63758311b0201",
    "rt": 2525,
    "stimulus": "imgs/Subject_35/face03.jpg",
    "slider_start": 5,
    "response": 10,
    "task": "slider",
    "trial_type": "image-slider-response",
    "trial_index": 165,
    "time_elapsed": 334732,
    "internal_node_id": "0.0-2.0-1.81",
    "subject_id": "65d63b0717dd79b55e1f5f4e",
    "study_id": "65fc8633011b896607968f94",
    "session_id": "07bwuz44nrh",
    "imagefolder_id": 35
  },
  {
    "_id": "65fdc7d956f63758311b0202",
    "rt": 2507,
    "stimulus": "imgs/Subject_35/n118_match_scr.jpg",
    "slider_start": 5,
    "response": 0,
    "task": "slider",
    "trial_type": "image-slider-response",
    "trial_index": 167,
    "time_elapsed": 337743,
    "internal_node_id": "0.0-2.0-1.82",
    "subject_id": "65d63b0717dd79b55e1f5f4e",
    "study_id": "65fc8633011b896607968f94",
    "session_id": "07bwuz44nrh",
    "imagefolder_id": 35
  },
  {
    "_id": "65fdc7dd56f63758311b0203",
    "rt": 3265,
    "stimulus": "imgs/Subject_35/218.jpg",
    "slider_start": 5,
    "response": 8,
    "task": "slider",
    "trial_type": "image-slider-response",
    "trial_index": 169,
    "time_elapsed": 341511,
    "internal_node_id": "0.0-2.0-1.83",
    "subject_id": "65d63b0717dd79b55e1f5f4e",
    "study_id": "65fc8633011b896607968f94",
    "session_id": "07bwuz44nrh",
    "imagefolder_id": 35
  },
  {
    "_id": "65fdc7e256f63758311b0204",
    "rt": 4044,
    "stimulus": "imgs/Subject_35/n80_match.jpg",
    "slider_start": 5,
    "response": 6,
    "task": "slider",
    "trial_type": "image-slider-response",
    "trial_index": 171,
    "time_elapsed": 346060,
    "internal_node_id": "0.0-2.0-1.84",
    "subject_id": "65d63b0717dd79b55e1f5f4e",
    "study_id": "65fc8633011b896607968f94",
    "session_id": "07bwuz44nrh",
    "imagefolder_id": 35
  },
  {
    "_id": "65fdc7e756f63758311b0205",
    "rt": 5355,
    "stimulus": "imgs/Subject_35/p34_1.jpg",
    "slider_start": 5,
    "response": 7,
    "task": "slider",
    "trial_type": "image-slider-response",
    "trial_index": 173,
    "time_elapsed": 351919,
    "internal_node_id": "0.0-2.0-1.85",
    "subject_id": "65d63b0717dd79b55e1f5f4e",
    "study_id": "65fc8633011b896607968f94",
    "session_id": "07bwuz44nrh",
    "imagefolder_id": 35
  },
  {
    "_id": "65fdc7ee56f63758311b0206",
    "rt": 6227,
    "stimulus": "imgs/Subject_35/p11_3.jpg",
    "slider_start": 5,
    "response": 3,
    "task": "slider",
    "trial_type": "image-slider-response",
    "trial_index": 175,
    "time_elapsed": 358648,
    "internal_node_id": "0.0-2.0-1.86",
    "subject_id": "65d63b0717dd79b55e1f5f4e",
    "study_id": "65fc8633011b896607968f94",
    "session_id": "07bwuz44nrh",
    "imagefolder_id": 35
  },
  {
    "_id": "65fdc7f356f63758311b0207",
    "rt": 4281,
    "stimulus": "imgs/Subject_35/p147.jpg",
    "slider_start": 5,
    "response": 8,
    "task": "slider",
    "trial_type": "image-slider-response",
    "trial_index": 177,
    "time_elapsed": 363434,
    "internal_node_id": "0.0-2.0-1.87",
    "subject_id": "65d63b0717dd79b55e1f5f4e",
    "study_id": "65fc8633011b896607968f94",
    "session_id": "07bwuz44nrh",
    "imagefolder_id": 35
  },
  {
    "_id": "65fdc7f656f63758311b0208",
    "rt": 2251,
    "stimulus": "imgs/Subject_35/196.jpg",
    "slider_start": 5,
    "response": 8,
    "task": "slider",
    "trial_type": "image-slider-response",
    "trial_index": 179,
    "time_elapsed": 366188,
    "internal_node_id": "0.0-2.0-1.88",
    "subject_id": "65d63b0717dd79b55e1f5f4e",
    "study_id": "65fc8633011b896607968f94",
    "session_id": "07bwuz44nrh",
    "imagefolder_id": 35
  },
  {
    "_id": "65fdc7f956f63758311b0209",
    "rt": 2639,
    "stimulus": "imgs/Subject_35/193.jpg",
    "slider_start": 5,
    "response": 7,
    "task": "slider",
    "trial_type": "image-slider-response",
    "trial_index": 181,
    "time_elapsed": 369330,
    "internal_node_id": "0.0-2.0-1.89",
    "subject_id": "65d63b0717dd79b55e1f5f4e",
    "study_id": "65fc8633011b896607968f94",
    "session_id": "07bwuz44nrh",
    "imagefolder_id": 35
  },
  {
    "_id": "65fdc7fc56f63758311b020a",
    "rt": 2349,
    "stimulus": "imgs/Subject_35/246.jpg",
    "slider_start": 5,
    "response": 7,
    "task": "slider",
    "trial_type": "image-slider-response",
    "trial_index": 183,
    "time_elapsed": 372181,
    "internal_node_id": "0.0-2.0-1.90",
    "subject_id": "65d63b0717dd79b55e1f5f4e",
    "study_id": "65fc8633011b896607968f94",
    "session_id": "07bwuz44nrh",
    "imagefolder_id": 35
  },
  {
    "_id": "65fdc7ff56f63758311b020b",
    "rt": 2345,
    "stimulus": "imgs/Subject_35/p100.jpg",
    "slider_start": 5,
    "response": 8,
    "task": "slider",
    "trial_type": "image-slider-response",
    "trial_index": 185,
    "time_elapsed": 375030,
    "internal_node_id": "0.0-2.0-1.91",
    "subject_id": "65d63b0717dd79b55e1f5f4e",
    "study_id": "65fc8633011b896607968f94",
    "session_id": "07bwuz44nrh",
    "imagefolder_id": 35
  },
  {
    "_id": "65fdc80356f63758311b020c",
    "rt": 3518,
    "stimulus": "imgs/Subject_35/n114_match_4.jpg",
    "slider_start": 5,
    "response": 0,
    "task": "slider",
    "trial_type": "image-slider-response",
    "trial_index": 187,
    "time_elapsed": 379050,
    "internal_node_id": "0.0-2.0-1.92",
    "subject_id": "65d63b0717dd79b55e1f5f4e",
    "study_id": "65fc8633011b896607968f94",
    "session_id": "07bwuz44nrh",
    "imagefolder_id": 35
  },
  {
    "_id": "65fdc80656f63758311b020d",
    "rt": 3221,
    "stimulus": "imgs/Subject_35/256.jpg",
    "slider_start": 5,
    "response": 8,
    "task": "slider",
    "trial_type": "image-slider-response",
    "trial_index": 189,
    "time_elapsed": 382775,
    "internal_node_id": "0.0-2.0-1.93",
    "subject_id": "65d63b0717dd79b55e1f5f4e",
    "study_id": "65fc8633011b896607968f94",
    "session_id": "07bwuz44nrh",
    "imagefolder_id": 35
  },
  {
    "_id": "65fdc81556f63758311b020e",
    "rt": 14417,
    "stimulus": "imgs/Subject_35/234.jpg",
    "slider_start": 5,
    "response": 9,
    "task": "slider",
    "trial_type": "image-slider-response",
    "trial_index": 191,
    "time_elapsed": 397697,
    "internal_node_id": "0.0-2.0-1.94",
    "subject_id": "65d63b0717dd79b55e1f5f4e",
    "study_id": "65fc8633011b896607968f94",
    "session_id": "07bwuz44nrh",
    "imagefolder_id": 35
  },
  {
    "_id": "65fdc81956f63758311b020f",
    "rt": 3148,
    "stimulus": "imgs/Subject_35/n156_match_scr.jpg",
    "slider_start": 5,
    "response": 2,
    "task": "slider",
    "trial_type": "image-slider-response",
    "trial_index": 193,
    "time_elapsed": 401350,
    "internal_node_id": "0.0-2.0-1.95",
    "subject_id": "65d63b0717dd79b55e1f5f4e",
    "study_id": "65fc8633011b896607968f94",
    "session_id": "07bwuz44nrh",
    "imagefolder_id": 35
  },
  {
    "_id": "65fdc81c56f63758311b0210",
    "rt": 2283,
    "stimulus": "imgs/Subject_35/p143_4.jpg",
    "slider_start": 5,
    "response": 0,
    "task": "slider",
    "trial_type": "image-slider-response",
    "trial_index": 195,
    "time_elapsed": 404137,
    "internal_node_id": "0.0-2.0-1.96",
    "subject_id": "65d63b0717dd79b55e1f5f4e",
    "study_id": "65fc8633011b896607968f94",
    "session_id": "07bwuz44nrh",
    "imagefolder_id": 35
  },
  {
    "_id": "65fdc81e56f63758311b0211",
    "rt": 1996,
    "stimulus": "imgs/Subject_35/90.jpg",
    "slider_start": 5,
    "response": 9,
    "task": "slider",
    "trial_type": "image-slider-response",
    "trial_index": 197,
    "time_elapsed": 406636,
    "internal_node_id": "0.0-2.0-1.97",
    "subject_id": "65d63b0717dd79b55e1f5f4e",
    "study_id": "65fc8633011b896607968f94",
    "session_id": "07bwuz44nrh",
    "imagefolder_id": 35
  },
  {
    "_id": "65fdc82156f63758311b0212",
    "rt": 2054,
    "stimulus": "imgs/Subject_35/171.jpg",
    "slider_start": 5,
    "response": 8,
    "task": "slider",
    "trial_type": "image-slider-response",
    "trial_index": 199,
    "time_elapsed": 409193,
    "internal_node_id": "0.0-2.0-1.98",
    "subject_id": "65d63b0717dd79b55e1f5f4e",
    "study_id": "65fc8633011b896607968f94",
    "session_id": "07bwuz44nrh",
    "imagefolder_id": 35
  },
  {
    "_id": "65fdc82456f63758311b0213",
    "rt": 2835,
    "stimulus": "imgs/Subject_35/175.jpg",
    "slider_start": 5,
    "response": 9,
    "task": "slider",
    "trial_type": "image-slider-response",
    "trial_index": 201,
    "time_elapsed": 412532,
    "internal_node_id": "0.0-2.0-1.99",
    "subject_id": "65d63b0717dd79b55e1f5f4e",
    "study_id": "65fc8633011b896607968f94",
    "session_id": "07bwuz44nrh",
    "imagefolder_id": 35
  },
  {
    "_id": "65fdc82856f63758311b0214",
    "rt": 2976,
    "stimulus": "imgs/Subject_35/n81_match.jpg",
    "slider_start": 5,
    "response": 0,
    "task": "slider",
    "trial_type": "image-slider-response",
    "trial_index": 203,
    "time_elapsed": 416011,
    "internal_node_id": "0.0-2.0-1.100",
    "subject_id": "65d63b0717dd79b55e1f5f4e",
    "study_id": "65fc8633011b896607968f94",
    "session_id": "07bwuz44nrh",
    "imagefolder_id": 35
  },
  {
    "_id": "65fdc82b56f63758311b0215",
    "rt": 3427,
    "stimulus": "imgs/Subject_35/n150_match_scr.jpg",
    "slider_start": 5,
    "response": 0,
    "task": "slider",
    "trial_type": "image-slider-response",
    "trial_index": 205,
    "time_elapsed": 419943,
    "internal_node_id": "0.0-2.0-1.101",
    "subject_id": "65d63b0717dd79b55e1f5f4e",
    "study_id": "65fc8633011b896607968f94",
    "session_id": "07bwuz44nrh",
    "imagefolder_id": 35
  },
  {
    "_id": "65fdc82f56f63758311b0216",
    "rt": 3478,
    "stimulus": "imgs/Subject_35/n97_match_2.jpg",
    "slider_start": 5,
    "response": 0,
    "task": "slider",
    "trial_type": "image-slider-response",
    "trial_index": 207,
    "time_elapsed": 423924,
    "internal_node_id": "0.0-2.0-1.102",
    "subject_id": "65d63b0717dd79b55e1f5f4e",
    "study_id": "65fc8633011b896607968f94",
    "session_id": "07bwuz44nrh",
    "imagefolder_id": 35
  },
  {
    "_id": "65fdc83356f63758311b0217",
    "rt": 3391,
    "stimulus": "imgs/Subject_35/p118_scr.jpg",
    "slider_start": 5,
    "response": 6,
    "task": "slider",
    "trial_type": "image-slider-response",
    "trial_index": 209,
    "time_elapsed": 427818,
    "internal_node_id": "0.0-2.0-1.103",
    "subject_id": "65d63b0717dd79b55e1f5f4e",
    "study_id": "65fc8633011b896607968f94",
    "session_id": "07bwuz44nrh",
    "imagefolder_id": 35
  },
  {
    "_id": "65fdc83656f63758311b0218",
    "rt": 2378,
    "stimulus": "imgs/Subject_35/face26.jpg",
    "slider_start": 5,
    "response": 10,
    "task": "slider",
    "trial_type": "image-slider-response",
    "trial_index": 211,
    "time_elapsed": 430699,
    "internal_node_id": "0.0-2.0-1.104",
    "subject_id": "65d63b0717dd79b55e1f5f4e",
    "study_id": "65fc8633011b896607968f94",
    "session_id": "07bwuz44nrh",
    "imagefolder_id": 35
  },
  {
    "_id": "65fdc83b56f63758311b0219",
    "rt": 4756,
    "stimulus": "imgs/Subject_35/247.jpg",
    "slider_start": 5,
    "response": 8,
    "task": "slider",
    "trial_type": "image-slider-response",
    "trial_index": 213,
    "time_elapsed": 435959,
    "internal_node_id": "0.0-2.0-1.105",
    "subject_id": "65d63b0717dd79b55e1f5f4e",
    "study_id": "65fc8633011b896607968f94",
    "session_id": "07bwuz44nrh",
    "imagefolder_id": 35
  },
  {
    "_id": "65fdc84056f63758311b021a",
    "rt": 3853,
    "stimulus": "imgs/Subject_35/p127_3.jpg",
    "slider_start": 5,
    "response": 1,
    "task": "slider",
    "trial_type": "image-slider-response",
    "trial_index": 215,
    "time_elapsed": 440313,
    "internal_node_id": "0.0-2.0-1.106",
    "subject_id": "65d63b0717dd79b55e1f5f4e",
    "study_id": "65fc8633011b896607968f94",
    "session_id": "07bwuz44nrh",
    "imagefolder_id": 35
  },
  {
    "_id": "65fdc84256f63758311b021b",
    "rt": 2119,
    "stimulus": "imgs/Subject_35/p113_3.jpg",
    "slider_start": 5,
    "response": 0,
    "task": "slider",
    "trial_type": "image-slider-response",
    "trial_index": 217,
    "time_elapsed": 442935,
    "internal_node_id": "0.0-2.0-1.107",
    "subject_id": "65d63b0717dd79b55e1f5f4e",
    "study_id": "65fc8633011b896607968f94",
    "session_id": "07bwuz44nrh",
    "imagefolder_id": 35
  },
  {
    "_id": "65fdc84656f63758311b021c",
    "rt": 2743,
    "stimulus": "imgs/Subject_35/176.jpg",
    "slider_start": 5,
    "response": 8,
    "task": "slider",
    "trial_type": "image-slider-response",
    "trial_index": 219,
    "time_elapsed": 446181,
    "internal_node_id": "0.0-2.0-1.108",
    "subject_id": "65d63b0717dd79b55e1f5f4e",
    "study_id": "65fc8633011b896607968f94",
    "session_id": "07bwuz44nrh",
    "imagefolder_id": 35
  },
  {
    "_id": "65fdc84956f63758311b021d",
    "rt": 2858,
    "stimulus": "imgs/Subject_35/n159_match.jpg",
    "slider_start": 5,
    "response": 0,
    "task": "slider",
    "trial_type": "image-slider-response",
    "trial_index": 221,
    "time_elapsed": 449541,
    "internal_node_id": "0.0-2.0-1.109",
    "subject_id": "65d63b0717dd79b55e1f5f4e",
    "study_id": "65fc8633011b896607968f94",
    "session_id": "07bwuz44nrh",
    "imagefolder_id": 35
  },
  {
    "_id": "65fdc84e56f63758311b021e",
    "rt": 4926,
    "stimulus": "<p>Some of the images that you saw appeared jumbled. How frequently did you try to mentally shift the parts to make them whole again?</p>",
    "response": 1,
    "task": "postquestion",
    "trial_type": "html-button-response",
    "trial_index": 222,
    "time_elapsed": 454470,
    "internal_node_id": "0.0-3.0",
    "subject_id": "65d63b0717dd79b55e1f5f4e",
    "study_id": "65fc8633011b896607968f94",
    "session_id": "07bwuz44nrh",
    "imagefolder_id": 35
  }
]