[
  {
    "_id": "65d1556e6e8f2f4cff15fe57",
    "rt": 1037,
    "stimulus": "img/Pareidolia-2.jpg",
    "slider_start": 50,
    "response": 50,
    "task": "response",
    "trial_type": "image-slider-response",
    "trial_index": 4,
    "time_elapsed": 5369,
    "internal_node_id": "0.0-3.0-1.0"
  },
  {
    "_id": "65d155766e8f2f4cff15fe58",
    "rt": 7531,
    "stimulus": "img/face-pareidolia.jpg",
    "slider_start": 50,
    "response": 50,
    "task": "response",
    "trial_type": "image-slider-response",
    "trial_index": 6,
    "time_elapsed": 14155,
    "internal_node_id": "0.0-3.0-1.1"
  },
  {
    "_id": "65d155826e8f2f4cff15fe59",
    "rt": 10279,
    "stimulus": "img/macaque.jpeg",
    "slider_start": 50,
    "response": 50,
    "task": "response",
    "trial_type": "image-slider-response",
    "trial_index": 8,
    "time_elapsed": 26189,
    "internal_node_id": "0.0-3.0-1.2"
  },
  {
    "_id": "65d155846e8f2f4cff15fe5a",
    "rt": 1391,
    "stimulus": "img/kasper.jpeg",
    "slider_start": 50,
    "response": 50,
    "task": "response",
    "trial_type": "image-slider-response",
    "trial_index": 10,
    "time_elapsed": 28335,
    "internal_node_id": "0.0-3.0-1.3"
  },
  {
    "_id": "65d1667fe4084ec8b6706896",
    "rt": 2490,
    "stimulus": "imgs/n83_match_scr_4.jpg",
    "slider_start": 50,
    "response": 50,
    "task": "response",
    "trial_type": "image-slider-response",
    "trial_index": 4,
    "time_elapsed": 15013,
    "internal_node_id": "0.0-3.0-1.0"
  },
  {
    "_id": "65d16685e4084ec8b6706897",
    "rt": 4662,
    "stimulus": "imgs/n147_match_scr.jpg",
    "slider_start": 50,
    "response": 50,
    "task": "response",
    "trial_type": "image-slider-response",
    "trial_index": 6,
    "time_elapsed": 20679,
    "internal_node_id": "0.0-3.0-1.1"
  },
  {
    "_id": "65d1669ce4084ec8b6706898",
    "rt": 22244,
    "stimulus": "imgs/n39_match.tif",
    "slider_start": 50,
    "response": 50,
    "task": "response",
    "trial_type": "image-slider-response",
    "trial_index": 8,
    "time_elapsed": 43926,
    "internal_node_id": "0.0-3.0-1.2"
  },
  {
    "_id": "65d1669fe4084ec8b6706899",
    "rt": 1649,
    "stimulus": "imgs/n43_match_4.jpg",
    "slider_start": 50,
    "response": 50,
    "task": "response",
    "trial_type": "image-slider-response",
    "trial_index": 10,
    "time_elapsed": 46577,
    "internal_node_id": "0.0-3.0-1.3"
  },
  {
    "_id": "65d166a1e4084ec8b670689a",
    "rt": 1103,
    "stimulus": "imgs/p37_2.jpg",
    "slider_start": 50,
    "response": 50,
    "task": "response",
    "trial_type": "image-slider-response",
    "trial_index": 12,
    "time_elapsed": 48682,
    "internal_node_id": "0.0-3.0-1.4"
  },
  {
    "_id": "65d166a3e4084ec8b670689b",
    "rt": 1155,
    "stimulus": "imgs/p156_2.jpg",
    "slider_start": 50,
    "response": 50,
    "task": "response",
    "trial_type": "image-slider-response",
    "trial_index": 14,
    "time_elapsed": 50839,
    "internal_node_id": "0.0-3.0-1.5"
  },
  {
    "_id": "65d166a5e4084ec8b670689c",
    "rt": 976,
    "stimulus": "imgs/n127_match_scr_1.jpg",
    "slider_start": 50,
    "response": 50,
    "task": "response",
    "trial_type": "image-slider-response",
    "trial_index": 16,
    "time_elapsed": 52818,
    "internal_node_id": "0.0-3.0-1.6"
  },
  {
    "_id": "65d166a7e4084ec8b670689d",
    "rt": 948,
    "stimulus": "imgs/p119_scr_2.jpg",
    "slider_start": 50,
    "response": 50,
    "task": "response",
    "trial_type": "image-slider-response",
    "trial_index": 18,
    "time_elapsed": 54770,
    "internal_node_id": "0.0-3.0-1.7"
  },
  {
    "_id": "65d166a9e4084ec8b670689e",
    "rt": 928,
    "stimulus": "imgs/p11_2.jpg",
    "slider_start": 50,
    "response": 50,
    "task": "response",
    "trial_type": "image-slider-response",
    "trial_index": 20,
    "time_elapsed": 56700,
    "internal_node_id": "0.0-3.0-1.8"
  },
  {
    "_id": "65d166f72532a6239085a311",
    "rt": 5755,
    "stimulus": "imgs/n127_match_scr.jpg",
    "slider_start": 50,
    "response": 11,
    "task": "response",
    "trial_type": "image-slider-response",
    "trial_index": 4,
    "time_elapsed": 10812,
    "internal_node_id": "0.0-3.0-1.0"
  },
  {
    "_id": "65d166fa2532a6239085a312",
    "rt": 2767,
    "stimulus": "imgs/n97_match_4.jpg",
    "slider_start": 50,
    "response": 9,
    "task": "response",
    "trial_type": "image-slider-response",
    "trial_index": 6,
    "time_elapsed": 14582,
    "internal_node_id": "0.0-3.0-1.1"
  },
  {
    "_id": "65d166fe2532a6239085a313",
    "rt": 2728,
    "stimulus": "imgs/p123_3.jpg",
    "slider_start": 50,
    "response": 12,
    "task": "response",
    "trial_type": "image-slider-response",
    "trial_index": 8,
    "time_elapsed": 18313,
    "internal_node_id": "0.0-3.0-1.2"
  },
  {
    "_id": "65d167032532a6239085a314",
    "rt": 3752,
    "stimulus": "imgs/n147_match_scr_4.jpg",
    "slider_start": 50,
    "response": 10,
    "task": "response",
    "trial_type": "image-slider-response",
    "trial_index": 10,
    "time_elapsed": 23067,
    "internal_node_id": "0.0-3.0-1.3"
  },
  {
    "_id": "65d167062532a6239085a315",
    "rt": 2466,
    "stimulus": "imgs/p159_2.jpg",
    "slider_start": 50,
    "response": 10,
    "task": "response",
    "trial_type": "image-slider-response",
    "trial_index": 12,
    "time_elapsed": 26536,
    "internal_node_id": "0.0-3.0-1.4"
  },
  {
    "_id": "65d1670a2532a6239085a316",
    "rt": 2237,
    "stimulus": "imgs/p46_scr_4.jpg",
    "slider_start": 50,
    "response": 33,
    "task": "response",
    "trial_type": "image-slider-response",
    "trial_index": 14,
    "time_elapsed": 29774,
    "internal_node_id": "0.0-3.0-1.5"
  },
  {
    "_id": "65d1670e2532a6239085a317",
    "rt": 3459,
    "stimulus": "imgs/p37_4.jpg",
    "slider_start": 50,
    "response": 86,
    "task": "response",
    "trial_type": "image-slider-response",
    "trial_index": 16,
    "time_elapsed": 34236,
    "internal_node_id": "0.0-3.0-1.6"
  },
  {
    "_id": "65d1676ed034dc1a8ba72f3b",
    "rt": 6716,
    "stimulus": "imgs/n34_match_scr_2.jpg",
    "slider_start": 50,
    "response": 70,
    "task": "response",
    "trial_type": "image-slider-response",
    "trial_index": 4,
    "time_elapsed": 13888,
    "internal_node_id": "0.0-3.0-1.0"
  },
  {
    "_id": "65d16772d034dc1a8ba72f3c",
    "rt": 2268,
    "stimulus": "imgs/p97_4.jpg",
    "slider_start": 50,
    "response": 86,
    "task": "response",
    "trial_type": "image-slider-response",
    "trial_index": 6,
    "time_elapsed": 17158,
    "internal_node_id": "0.0-3.0-1.1"
  },
  {
    "_id": "65d16775d034dc1a8ba72f3d",
    "rt": 2474,
    "stimulus": "imgs/n37_match_1.jpg",
    "slider_start": 50,
    "response": 12,
    "task": "response",
    "trial_type": "image-slider-response",
    "trial_index": 8,
    "time_elapsed": 20634,
    "internal_node_id": "0.0-3.0-1.2"
  },
  {
    "_id": "65d16779d034dc1a8ba72f3e",
    "rt": 2880,
    "stimulus": "imgs/p97_scr.jpg",
    "slider_start": 50,
    "response": 20,
    "task": "response",
    "trial_type": "image-slider-response",
    "trial_index": 10,
    "time_elapsed": 24517,
    "internal_node_id": "0.0-3.0-1.3"
  },
  {
    "_id": "65d1677bd034dc1a8ba72f3f",
    "rt": 1504,
    "stimulus": "imgs/p113_3.jpg",
    "slider_start": 50,
    "response": 95,
    "task": "response",
    "trial_type": "image-slider-response",
    "trial_index": 12,
    "time_elapsed": 27023,
    "internal_node_id": "0.0-3.0-1.4"
  },
  {
    "_id": "65d1677ed034dc1a8ba72f40",
    "rt": 1754,
    "stimulus": "imgs/n141_match_scr_1.jpg",
    "slider_start": 50,
    "response": 16,
    "task": "response",
    "trial_type": "image-slider-response",
    "trial_index": 14,
    "time_elapsed": 29781,
    "internal_node_id": "0.0-3.0-1.5"
  },
  {
    "_id": "65d16781d034dc1a8ba72f41",
    "rt": 1924,
    "stimulus": "imgs/p37_scr_2.jpg",
    "slider_start": 50,
    "response": 4,
    "task": "response",
    "trial_type": "image-slider-response",
    "trial_index": 16,
    "time_elapsed": 32708,
    "internal_node_id": "0.0-3.0-1.6"
  },
  {
    "_id": "65d16784d034dc1a8ba72f42",
    "rt": 1854,
    "stimulus": "imgs/p97_scr_2.jpg",
    "slider_start": 50,
    "response": 97,
    "task": "response",
    "trial_type": "image-slider-response",
    "trial_index": 18,
    "time_elapsed": 35565,
    "internal_node_id": "0.0-3.0-1.7"
  },
  {
    "_id": "65d16788d034dc1a8ba72f43",
    "rt": 2684,
    "stimulus": "imgs/p39_scr_4.jpg",
    "slider_start": 50,
    "response": 18,
    "task": "response",
    "trial_type": "image-slider-response",
    "trial_index": 20,
    "time_elapsed": 39253,
    "internal_node_id": "0.0-3.0-1.8"
  },
  {
    "_id": "65d1678dd034dc1a8ba72f44",
    "rt": 4462,
    "stimulus": "imgs/p128_scr_2.jpg",
    "slider_start": 50,
    "response": 23,
    "task": "response",
    "trial_type": "image-slider-response",
    "trial_index": 22,
    "time_elapsed": 44718,
    "internal_node_id": "0.0-3.0-1.9"
  },
  {
    "_id": "65d16791d034dc1a8ba72f45",
    "rt": 2706,
    "stimulus": "imgs/p119_3.jpg",
    "slider_start": 50,
    "response": 17,
    "task": "response",
    "trial_type": "image-slider-response",
    "trial_index": 24,
    "time_elapsed": 48426,
    "internal_node_id": "0.0-3.0-1.10"
  },
  {
    "_id": "65d16794d034dc1a8ba72f46",
    "rt": 2247,
    "stimulus": "imgs/p43_2.jpg",
    "slider_start": 50,
    "response": 13,
    "task": "response",
    "trial_type": "image-slider-response",
    "trial_index": 26,
    "time_elapsed": 51676,
    "internal_node_id": "0.0-3.0-1.11"
  },
  {
    "_id": "65d16797d034dc1a8ba72f47",
    "rt": 1758,
    "stimulus": "imgs/n97_match_scr_3.jpg",
    "slider_start": 50,
    "response": 30,
    "task": "response",
    "trial_type": "image-slider-response",
    "trial_index": 28,
    "time_elapsed": 54436,
    "internal_node_id": "0.0-3.0-1.12"
  },
  {
    "_id": "65d1679bd034dc1a8ba72f48",
    "rt": 3523,
    "stimulus": "imgs/p119.tif",
    "slider_start": 50,
    "response": 18,
    "task": "response",
    "trial_type": "image-slider-response",
    "trial_index": 30,
    "time_elapsed": 58962,
    "internal_node_id": "0.0-3.0-1.13"
  },
  {
    "_id": "65d1679fd034dc1a8ba72f49",
    "rt": 2306,
    "stimulus": "imgs/n39_match_1.jpg",
    "slider_start": 50,
    "response": 15,
    "task": "response",
    "trial_type": "image-slider-response",
    "trial_index": 32,
    "time_elapsed": 62270,
    "internal_node_id": "0.0-3.0-1.14"
  },
  {
    "_id": "65d167a2d034dc1a8ba72f4a",
    "rt": 2108,
    "stimulus": "imgs/p159_2.jpg",
    "slider_start": 50,
    "response": 20,
    "task": "response",
    "trial_type": "image-slider-response",
    "trial_index": 34,
    "time_elapsed": 65382,
    "internal_node_id": "0.0-3.0-1.15"
  },
  {
    "_id": "65d167a5d034dc1a8ba72f4b",
    "rt": 1921,
    "stimulus": "imgs/n114_match_scr_2.jpg",
    "slider_start": 50,
    "response": 18,
    "task": "response",
    "trial_type": "image-slider-response",
    "trial_index": 36,
    "time_elapsed": 68307,
    "internal_node_id": "0.0-3.0-1.16"
  },
  {
    "_id": "65d167a8d034dc1a8ba72f4c",
    "rt": 2472,
    "stimulus": "imgs/p20_2.jpg",
    "slider_start": 50,
    "response": 21,
    "task": "response",
    "trial_type": "image-slider-response",
    "trial_index": 38,
    "time_elapsed": 71782,
    "internal_node_id": "0.0-3.0-1.17"
  },
  {
    "_id": "65d167abd034dc1a8ba72f4d",
    "rt": 1964,
    "stimulus": "imgs/p59_3.jpg",
    "slider_start": 50,
    "response": 26,
    "task": "response",
    "trial_type": "image-slider-response",
    "trial_index": 40,
    "time_elapsed": 74749,
    "internal_node_id": "0.0-3.0-1.18"
  },
  {
    "_id": "65d167aed034dc1a8ba72f4e",
    "rt": 2118,
    "stimulus": "imgs/n97_match_3.jpg",
    "slider_start": 50,
    "response": 27,
    "task": "response",
    "trial_type": "image-slider-response",
    "trial_index": 42,
    "time_elapsed": 77869,
    "internal_node_id": "0.0-3.0-1.19"
  },
  {
    "_id": "65d167b1d034dc1a8ba72f4f",
    "rt": 1896,
    "stimulus": "imgs/p113_4.jpg",
    "slider_start": 50,
    "response": 9,
    "task": "response",
    "trial_type": "image-slider-response",
    "trial_index": 44,
    "time_elapsed": 80768,
    "internal_node_id": "0.0-3.0-1.20"
  },
  {
    "_id": "65d167b5d034dc1a8ba72f50",
    "rt": 2839,
    "stimulus": "imgs/p100_1.jpg",
    "slider_start": 50,
    "response": 10,
    "task": "response",
    "trial_type": "image-slider-response",
    "trial_index": 46,
    "time_elapsed": 84610,
    "internal_node_id": "0.0-3.0-1.21"
  },
  {
    "_id": "65d167b9d034dc1a8ba72f51",
    "rt": 3371,
    "stimulus": "imgs/p127_scr_1.jpg",
    "slider_start": 50,
    "response": 30,
    "task": "response",
    "trial_type": "image-slider-response",
    "trial_index": 48,
    "time_elapsed": 88984,
    "internal_node_id": "0.0-3.0-1.22"
  },
  {
    "_id": "65d167bfd034dc1a8ba72f52",
    "rt": 4497,
    "stimulus": "imgs/n118_match.tif",
    "slider_start": 50,
    "response": 9,
    "task": "response",
    "trial_type": "image-slider-response",
    "trial_index": 50,
    "time_elapsed": 94483,
    "internal_node_id": "0.0-3.0-1.23"
  },
  {
    "_id": "65d167c2d034dc1a8ba72f53",
    "rt": 2449,
    "stimulus": "imgs/p11_scr_3.jpg",
    "slider_start": 50,
    "response": 9,
    "task": "response",
    "trial_type": "image-slider-response",
    "trial_index": 52,
    "time_elapsed": 97935,
    "internal_node_id": "0.0-3.0-1.24"
  },
  {
    "_id": "65d16819d034dc1a8ba72f54",
    "rt": 2049,
    "stimulus": "imgs/p100_scr_1.jpg",
    "slider_start": 50,
    "response": 50,
    "task": "response",
    "trial_type": "image-slider-response",
    "trial_index": 4,
    "time_elapsed": 7728,
    "internal_node_id": "0.0-3.0-1.0"
  },
  {
    "_id": "65d1681dd034dc1a8ba72f55",
    "rt": 2655,
    "stimulus": "imgs/n20_match_2.jpg",
    "slider_start": 50,
    "response": 12,
    "task": "response",
    "trial_type": "image-slider-response",
    "trial_index": 6,
    "time_elapsed": 11386,
    "internal_node_id": "0.0-3.0-1.1"
  },
  {
    "_id": "65d16822d034dc1a8ba72f56",
    "rt": 3730,
    "stimulus": "imgs/p135_scr.jpg",
    "slider_start": 50,
    "response": 11,
    "task": "response",
    "trial_type": "image-slider-response",
    "trial_index": 8,
    "time_elapsed": 16118,
    "internal_node_id": "0.0-3.0-1.2"
  },
  {
    "_id": "65d16826d034dc1a8ba72f57",
    "rt": 3453,
    "stimulus": "imgs/p113.tif",
    "slider_start": 50,
    "response": 13,
    "task": "response",
    "trial_type": "image-slider-response",
    "trial_index": 10,
    "time_elapsed": 20573,
    "internal_node_id": "0.0-3.0-1.3"
  },
  {
    "_id": "65d16830d034dc1a8ba72f58",
    "rt": 9457,
    "stimulus": "imgs/n127_match_3.jpg",
    "slider_start": 50,
    "response": 13,
    "task": "response",
    "trial_type": "image-slider-response",
    "trial_index": 12,
    "time_elapsed": 31032,
    "internal_node_id": "0.0-3.0-1.4"
  },
  {
    "_id": "65d16834d034dc1a8ba72f59",
    "rt": 2150,
    "stimulus": "imgs/p08_1.jpg",
    "slider_start": 50,
    "response": 7,
    "task": "response",
    "trial_type": "image-slider-response",
    "trial_index": 14,
    "time_elapsed": 34184,
    "internal_node_id": "0.0-3.0-1.5"
  },
  {
    "_id": "65d16836d034dc1a8ba72f5a",
    "rt": 1852,
    "stimulus": "imgs/p81_3.jpg",
    "slider_start": 50,
    "response": 11,
    "task": "response",
    "trial_type": "image-slider-response",
    "trial_index": 16,
    "time_elapsed": 37040,
    "internal_node_id": "0.0-3.0-1.6"
  },
  {
    "_id": "65d16839d034dc1a8ba72f5b",
    "rt": 1740,
    "stimulus": "imgs/n142_match_4.jpg",
    "slider_start": 50,
    "response": 10,
    "task": "response",
    "trial_type": "image-slider-response",
    "trial_index": 18,
    "time_elapsed": 39782,
    "internal_node_id": "0.0-3.0-1.7"
  },
  {
    "_id": "65d1683dd034dc1a8ba72f5c",
    "rt": 2935,
    "stimulus": "imgs/n20_match_scr.jpg",
    "slider_start": 50,
    "response": 11,
    "task": "response",
    "trial_type": "image-slider-response",
    "trial_index": 20,
    "time_elapsed": 43719,
    "internal_node_id": "0.0-3.0-1.8"
  },
  {
    "_id": "65d16840d034dc1a8ba72f5d",
    "rt": 1926,
    "stimulus": "imgs/n146_match_scr_1.jpg",
    "slider_start": 50,
    "response": 11,
    "task": "response",
    "trial_type": "image-slider-response",
    "trial_index": 22,
    "time_elapsed": 46647,
    "internal_node_id": "0.0-3.0-1.9"
  },
  {
    "_id": "65d16843d034dc1a8ba72f5e",
    "rt": 2258,
    "stimulus": "imgs/n128_match_1.jpg",
    "slider_start": 50,
    "response": 12,
    "task": "response",
    "trial_type": "image-slider-response",
    "trial_index": 24,
    "time_elapsed": 49907,
    "internal_node_id": "0.0-3.0-1.10"
  },
  {
    "_id": "65d16846d034dc1a8ba72f5f",
    "rt": 1890,
    "stimulus": "imgs/p43_scr_4.jpg",
    "slider_start": 50,
    "response": 14,
    "task": "response",
    "trial_type": "image-slider-response",
    "trial_index": 26,
    "time_elapsed": 52804,
    "internal_node_id": "0.0-3.0-1.11"
  },
  {
    "_id": "65d16849d034dc1a8ba72f60",
    "rt": 1750,
    "stimulus": "imgs/n34_match_scr_3.jpg",
    "slider_start": 50,
    "response": 21,
    "task": "response",
    "trial_type": "image-slider-response",
    "trial_index": 28,
    "time_elapsed": 55561,
    "internal_node_id": "0.0-3.0-1.12"
  },
  {
    "_id": "65d1685bd034dc1a8ba72f61",
    "rt": 16760,
    "stimulus": "imgs/n59_match_scr_3.jpg",
    "slider_start": 50,
    "response": 18,
    "task": "response",
    "trial_type": "image-slider-response",
    "trial_index": 30,
    "time_elapsed": 73337,
    "internal_node_id": "0.0-3.0-1.13"
  },
  {
    "_id": "65d1685dd034dc1a8ba72f62",
    "rt": 1196,
    "stimulus": "imgs/n155_match_3.jpg",
    "slider_start": 50,
    "response": 50,
    "task": "response",
    "trial_type": "image-slider-response",
    "trial_index": 32,
    "time_elapsed": 75537,
    "internal_node_id": "0.0-3.0-1.14"
  },
  {
    "_id": "65d16863d034dc1a8ba72f63",
    "rt": 5308,
    "stimulus": "imgs/p113_4.jpg",
    "slider_start": 50,
    "response": 19,
    "task": "response",
    "trial_type": "image-slider-response",
    "trial_index": 34,
    "time_elapsed": 81850,
    "internal_node_id": "0.0-3.0-1.15"
  },
  {
    "_id": "65d16a5fd034dc1a8ba72f64",
    "rt": 2774,
    "stimulus": "imgs/p43.tif",
    "slider_start": 50,
    "response": 68,
    "task": "response",
    "trial_type": "image-slider-response",
    "trial_index": 4,
    "time_elapsed": 25275,
    "internal_node_id": "0.0-3.0-1.0"
  },
  {
    "_id": "65d16a63d034dc1a8ba72f65",
    "rt": 2685,
    "stimulus": "imgs/n147_match_2.jpg",
    "slider_start": 50,
    "response": 22,
    "task": "response",
    "trial_type": "image-slider-response",
    "trial_index": 6,
    "time_elapsed": 28965,
    "internal_node_id": "0.0-3.0-1.1"
  },
  {
    "_id": "65d16a66d034dc1a8ba72f66",
    "rt": 1931,
    "stimulus": "imgs/p147_2.jpg",
    "slider_start": 50,
    "response": 91,
    "task": "response",
    "trial_type": "image-slider-response",
    "trial_index": 8,
    "time_elapsed": 31900,
    "internal_node_id": "0.0-3.0-1.2"
  },
  {
    "_id": "65d16a69d034dc1a8ba72f67",
    "rt": 2297,
    "stimulus": "imgs/n81_match_scr_1.jpg",
    "slider_start": 50,
    "response": 13,
    "task": "response",
    "trial_type": "image-slider-response",
    "trial_index": 10,
    "time_elapsed": 35201,
    "internal_node_id": "0.0-3.0-1.3"
  },
  {
    "_id": "65d16a6dd034dc1a8ba72f68",
    "rt": 2729,
    "stimulus": "imgs/n128_match_scr_3.jpg",
    "slider_start": 50,
    "response": 86,
    "task": "response",
    "trial_type": "image-slider-response",
    "trial_index": 12,
    "time_elapsed": 38933,
    "internal_node_id": "0.0-3.0-1.4"
  },
  {
    "_id": "65d2c4c1811cffe5fe427c35",
    "rt": 7036,
    "stimulus": "imgs/p141_scr.jpg",
    "slider_start": 50,
    "response": 61,
    "task": "response",
    "trial_type": "image-slider-response",
    "trial_index": 4,
    "time_elapsed": 12608,
    "internal_node_id": "0.0-3.0-1.0"
  },
  {
    "_id": "65d2c53ff7f2eb13cb8859ec",
    "rt": 10581,
    "stimulus": "imgs/n119_match_scr_3.jpg",
    "slider_start": 50,
    "response": 61,
    "task": "response",
    "trial_type": "image-slider-response",
    "trial_index": 4,
    "time_elapsed": 16181,
    "internal_node_id": "0.0-3.0-1.0"
  },
  {
    "_id": "65d2c543f7f2eb13cb8859ed",
    "rt": 2973,
    "stimulus": "imgs/p143_scr_3.jpg",
    "slider_start": 50,
    "response": 85,
    "task": "response",
    "trial_type": "image-slider-response",
    "trial_index": 6,
    "time_elapsed": 20159,
    "internal_node_id": "0.0-3.0-1.1"
  },
  {
    "_id": "65d2c54bf7f2eb13cb8859ee",
    "rt": 7003,
    "stimulus": "imgs/n46_match_scr_2.jpg",
    "slider_start": 50,
    "response": 40,
    "task": "response",
    "trial_type": "image-slider-response",
    "trial_index": 8,
    "time_elapsed": 28166,
    "internal_node_id": "0.0-3.0-1.2"
  },
  {
    "_id": "65d40578f7f2eb13cb8859ef",
    "rt": 13061,
    "stimulus": "imgs/p141_scr_2.jpg",
    "slider_start": 50,
    "response": 0,
    "task": "response",
    "trial_type": "image-slider-response",
    "trial_index": 4,
    "time_elapsed": 36904,
    "internal_node_id": "0.0-3.0-1.0"
  },
  {
    "_id": "65d4057ff7f2eb13cb8859f0",
    "rt": 6169,
    "stimulus": "imgs/p83_3.jpg",
    "slider_start": 50,
    "response": 0,
    "task": "response",
    "trial_type": "image-slider-response",
    "trial_index": 6,
    "time_elapsed": 44085,
    "internal_node_id": "0.0-3.0-1.1"
  },
  {
    "_id": "65d4058af7f2eb13cb8859f1",
    "rt": 10091,
    "stimulus": "imgs/n100_match.tif",
    "slider_start": 50,
    "response": 0,
    "task": "response",
    "trial_type": "image-slider-response",
    "trial_index": 8,
    "time_elapsed": 55194,
    "internal_node_id": "0.0-3.0-1.2"
  },
  {
    "_id": "65d4058ff7f2eb13cb8859f2",
    "rt": 3947,
    "stimulus": "imgs/p127_3.jpg",
    "slider_start": 50,
    "response": 0,
    "task": "response",
    "trial_type": "image-slider-response",
    "trial_index": 10,
    "time_elapsed": 60152,
    "internal_node_id": "0.0-3.0-1.3"
  },
  {
    "_id": "65d40594f7f2eb13cb8859f3",
    "rt": 3507,
    "stimulus": "imgs/p81_1.jpg",
    "slider_start": 50,
    "response": 0,
    "task": "response",
    "trial_type": "image-slider-response",
    "trial_index": 12,
    "time_elapsed": 64676,
    "internal_node_id": "0.0-3.0-1.4"
  },
  {
    "_id": "65d405a0f7f2eb13cb8859f4",
    "rt": 11190,
    "stimulus": "imgs/p159_scr_3.jpg",
    "slider_start": 50,
    "response": 31,
    "task": "response",
    "trial_type": "image-slider-response",
    "trial_index": 14,
    "time_elapsed": 76878,
    "internal_node_id": "0.0-3.0-1.5"
  },
  {
    "_id": "65d405aaf7f2eb13cb8859f5",
    "rt": 9622,
    "stimulus": "imgs/p81_scr_3.jpg",
    "slider_start": 50,
    "response": 18,
    "task": "response",
    "trial_type": "image-slider-response",
    "trial_index": 16,
    "time_elapsed": 87508,
    "internal_node_id": "0.0-3.0-1.6"
  },
  {
    "_id": "65d405b6f7f2eb13cb8859f6",
    "rt": 10238,
    "stimulus": "imgs/p128_scr_2.jpg",
    "slider_start": 50,
    "response": 1,
    "task": "response",
    "trial_type": "image-slider-response",
    "trial_index": 18,
    "time_elapsed": 98761,
    "internal_node_id": "0.0-3.0-1.7"
  },
  {
    "_id": "65d405e3f7f2eb13cb8859f7",
    "rt": 44225,
    "stimulus": "imgs/n59_match_1.jpg",
    "slider_start": 50,
    "response": 15,
    "task": "response",
    "trial_type": "image-slider-response",
    "trial_index": 20,
    "time_elapsed": 143996,
    "internal_node_id": "0.0-3.0-1.8"
  },
  {
    "_id": "65d405e8f7f2eb13cb8859f8",
    "rt": 3982,
    "stimulus": "imgs/n135_match_3.jpg",
    "slider_start": 50,
    "response": 0,
    "task": "response",
    "trial_type": "image-slider-response",
    "trial_index": 22,
    "time_elapsed": 149112,
    "internal_node_id": "0.0-3.0-1.9"
  },
  {
    "_id": "65d405edf7f2eb13cb8859f9",
    "rt": 3663,
    "stimulus": "imgs/n43_match_3.jpg",
    "slider_start": 50,
    "response": 0,
    "task": "response",
    "trial_type": "image-slider-response",
    "trial_index": 24,
    "time_elapsed": 153787,
    "internal_node_id": "0.0-3.0-1.10"
  },
  {
    "_id": "65d405f1f7f2eb13cb8859fa",
    "rt": 3657,
    "stimulus": "imgs/p118_scr_3.jpg",
    "slider_start": 50,
    "response": 0,
    "task": "response",
    "trial_type": "image-slider-response",
    "trial_index": 26,
    "time_elapsed": 158448,
    "internal_node_id": "0.0-3.0-1.11"
  },
  {
    "_id": "65d405f6f7f2eb13cb8859fb",
    "rt": 3582,
    "stimulus": "imgs/n146_match_scr_1.jpg",
    "slider_start": 50,
    "response": 0,
    "task": "response",
    "trial_type": "image-slider-response",
    "trial_index": 28,
    "time_elapsed": 163117,
    "internal_node_id": "0.0-3.0-1.12"
  },
  {
    "_id": "65d405faf7f2eb13cb8859fc",
    "rt": 3428,
    "stimulus": "imgs/n150_match_1.jpg",
    "slider_start": 50,
    "response": 0,
    "task": "response",
    "trial_type": "image-slider-response",
    "trial_index": 30,
    "time_elapsed": 167560,
    "internal_node_id": "0.0-3.0-1.13"
  },
  {
    "_id": "65d405fff7f2eb13cb8859fd",
    "rt": 3767,
    "stimulus": "imgs/n20_match_scr_4.jpg",
    "slider_start": 50,
    "response": 0,
    "task": "response",
    "trial_type": "image-slider-response",
    "trial_index": 32,
    "time_elapsed": 172344,
    "internal_node_id": "0.0-3.0-1.14"
  },
  {
    "_id": "65d40607f7f2eb13cb8859fe",
    "rt": 6468,
    "stimulus": "imgs/p119_scr_1.jpg",
    "slider_start": 50,
    "response": 30,
    "task": "response",
    "trial_type": "image-slider-response",
    "trial_index": 34,
    "time_elapsed": 179831,
    "internal_node_id": "0.0-3.0-1.15"
  },
  {
    "_id": "65d4060ef7f2eb13cb8859ff",
    "rt": 6574,
    "stimulus": "imgs/p119_3.jpg",
    "slider_start": 50,
    "response": 30,
    "task": "response",
    "trial_type": "image-slider-response",
    "trial_index": 36,
    "time_elapsed": 187414,
    "internal_node_id": "0.0-3.0-1.16"
  },
  {
    "_id": "65d4061bf7f2eb13cb885a00",
    "rt": 11716,
    "stimulus": "imgs/n119_match_3.jpg",
    "slider_start": 50,
    "response": 58,
    "task": "response",
    "trial_type": "image-slider-response",
    "trial_index": 38,
    "time_elapsed": 200142,
    "internal_node_id": "0.0-3.0-1.17"
  },
  {
    "_id": "65d40620f7f2eb13cb885a01",
    "rt": 3537,
    "stimulus": "imgs/p59.tif",
    "slider_start": 50,
    "response": 50,
    "task": "response",
    "trial_type": "image-slider-response",
    "trial_index": 40,
    "time_elapsed": 204696,
    "internal_node_id": "0.0-3.0-1.18"
  },
  {
    "_id": "65d40627f7f2eb13cb885a02",
    "rt": 6355,
    "stimulus": "imgs/p10_scr_1.jpg",
    "slider_start": 50,
    "response": 40,
    "task": "response",
    "trial_type": "image-slider-response",
    "trial_index": 42,
    "time_elapsed": 212142,
    "internal_node_id": "0.0-3.0-1.19"
  },
  {
    "_id": "65d40630f7f2eb13cb885a03",
    "rt": 7686,
    "stimulus": "imgs/p147_scr_3.jpg",
    "slider_start": 50,
    "response": 20,
    "task": "response",
    "trial_type": "image-slider-response",
    "trial_index": 44,
    "time_elapsed": 220964,
    "internal_node_id": "0.0-3.0-1.20"
  },
  {
    "_id": "65d4063af7f2eb13cb885a04",
    "rt": 8866,
    "stimulus": "imgs/p37_2.jpg",
    "slider_start": 50,
    "response": 0,
    "task": "response",
    "trial_type": "image-slider-response",
    "trial_index": 46,
    "time_elapsed": 230840,
    "internal_node_id": "0.0-3.0-1.21"
  },
  {
    "_id": "65d40643f7f2eb13cb885a05",
    "rt": 8429,
    "stimulus": "imgs/n59_match_scr_2.jpg",
    "slider_start": 50,
    "response": 60,
    "task": "response",
    "trial_type": "image-slider-response",
    "trial_index": 48,
    "time_elapsed": 240287,
    "internal_node_id": "0.0-3.0-1.22"
  },
  {
    "_id": "65d40648f7f2eb13cb885a06",
    "rt": 3926,
    "stimulus": "imgs/p10_scr_1.jpg",
    "slider_start": 50,
    "response": 29,
    "task": "response",
    "trial_type": "image-slider-response",
    "trial_index": 50,
    "time_elapsed": 245301,
    "internal_node_id": "0.0-3.0-1.23"
  },
  {
    "_id": "65d4064df7f2eb13cb885a07",
    "rt": 4110,
    "stimulus": "imgs/n46_match_4.jpg",
    "slider_start": 50,
    "response": 0,
    "task": "response",
    "trial_type": "image-slider-response",
    "trial_index": 52,
    "time_elapsed": 250422,
    "internal_node_id": "0.0-3.0-1.24"
  },
  {
    "_id": "65d531169b6a410af49d4c27",
    "rt": 5631,
    "stimulus": "imgs/p119_1.jpg",
    "slider_start": 50,
    "response": 73,
    "task": "response",
    "trial_type": "image-slider-response",
    "trial_index": 4,
    "time_elapsed": 62623,
    "internal_node_id": "0.0-3.0-1.0"
  },
  {
    "_id": "65d5311b9b6a410af49d4c28",
    "rt": 4652,
    "stimulus": "imgs/p143_1.jpg",
    "slider_start": 50,
    "response": 86,
    "task": "response",
    "trial_type": "image-slider-response",
    "trial_index": 6,
    "time_elapsed": 67781,
    "internal_node_id": "0.0-3.0-1.1"
  },
  {
    "_id": "65d531209b6a410af49d4c29",
    "rt": 4250,
    "stimulus": "imgs/p43_scr.jpg",
    "slider_start": 50,
    "response": 73,
    "task": "response",
    "trial_type": "image-slider-response",
    "trial_index": 8,
    "time_elapsed": 72535,
    "internal_node_id": "0.0-3.0-1.2"
  },
  {
    "_id": "65d531269b6a410af49d4c2a",
    "rt": 5693,
    "stimulus": "imgs/n155_match_1.jpg",
    "slider_start": 50,
    "response": 72,
    "task": "response",
    "trial_type": "image-slider-response",
    "trial_index": 10,
    "time_elapsed": 78734,
    "internal_node_id": "0.0-3.0-1.3"
  },
  {
    "_id": "65d5312e9b6a410af49d4c2b",
    "rt": 7378,
    "stimulus": "imgs/p147_scr_4.jpg",
    "slider_start": 50,
    "response": 72,
    "task": "response",
    "trial_type": "image-slider-response",
    "trial_index": 12,
    "time_elapsed": 86617,
    "internal_node_id": "0.0-3.0-1.4"
  },
  {
    "_id": "65d531369b6a410af49d4c2c",
    "rt": 7530,
    "stimulus": "imgs/p118_4.jpg",
    "slider_start": 50,
    "response": 70,
    "task": "response",
    "trial_type": "image-slider-response",
    "trial_index": 14,
    "time_elapsed": 94651,
    "internal_node_id": "0.0-3.0-1.5"
  },
  {
    "_id": "65d5313a9b6a410af49d4c2d",
    "rt": 3019,
    "stimulus": "imgs/p146_scr_4.jpg",
    "slider_start": 50,
    "response": 27,
    "task": "response",
    "trial_type": "image-slider-response",
    "trial_index": 16,
    "time_elapsed": 98175,
    "internal_node_id": "0.0-3.0-1.6"
  },
  {
    "_id": "65d5313d9b6a410af49d4c2e",
    "rt": 2351,
    "stimulus": "imgs/n83_match_scr_3.jpg",
    "slider_start": 50,
    "response": 27,
    "task": "response",
    "trial_type": "image-slider-response",
    "trial_index": 18,
    "time_elapsed": 101031,
    "internal_node_id": "0.0-3.0-1.7"
  },
  {
    "_id": "65d531409b6a410af49d4c2f",
    "rt": 2369,
    "stimulus": "imgs/n10_match_scr_4.jpg",
    "slider_start": 50,
    "response": 13,
    "task": "response",
    "trial_type": "image-slider-response",
    "trial_index": 20,
    "time_elapsed": 103906,
    "internal_node_id": "0.0-3.0-1.8"
  },
  {
    "_id": "65d531439b6a410af49d4c30",
    "rt": 3040,
    "stimulus": "imgs/p114.jpg",
    "slider_start": 50,
    "response": 90,
    "task": "response",
    "trial_type": "image-slider-response",
    "trial_index": 22,
    "time_elapsed": 107451,
    "internal_node_id": "0.0-3.0-1.9"
  },
  {
    "_id": "65d531499b6a410af49d4c31",
    "rt": 5454,
    "stimulus": "imgs/n155_match_scr.jpg",
    "slider_start": 50,
    "response": 23,
    "task": "response",
    "trial_type": "image-slider-response",
    "trial_index": 24,
    "time_elapsed": 113410,
    "internal_node_id": "0.0-3.0-1.10"
  },
  {
    "_id": "65d5314d9b6a410af49d4c32",
    "rt": 3652,
    "stimulus": "imgs/p126.jpg",
    "slider_start": 50,
    "response": 18,
    "task": "response",
    "trial_type": "image-slider-response",
    "trial_index": 26,
    "time_elapsed": 117567,
    "internal_node_id": "0.0-3.0-1.11"
  },
  {
    "_id": "65d531509b6a410af49d4c33",
    "rt": 2137,
    "stimulus": "imgs/p108_4.jpg",
    "slider_start": 50,
    "response": 28,
    "task": "response",
    "trial_type": "image-slider-response",
    "trial_index": 28,
    "time_elapsed": 120210,
    "internal_node_id": "0.0-3.0-1.12"
  },
  {
    "_id": "65d531539b6a410af49d4c34",
    "rt": 3117,
    "stimulus": "imgs/p127_1.jpg",
    "slider_start": 50,
    "response": 21,
    "task": "response",
    "trial_type": "image-slider-response",
    "trial_index": 30,
    "time_elapsed": 123831,
    "internal_node_id": "0.0-3.0-1.13"
  },
  {
    "_id": "65d531579b6a410af49d4c35",
    "rt": 3379,
    "stimulus": "imgs/n20_match_2.jpg",
    "slider_start": 50,
    "response": 37,
    "task": "response",
    "trial_type": "image-slider-response",
    "trial_index": 32,
    "time_elapsed": 127715,
    "internal_node_id": "0.0-3.0-1.14"
  },
  {
    "_id": "65d5315a9b6a410af49d4c36",
    "rt": 2464,
    "stimulus": "imgs/p142_scr_4.jpg",
    "slider_start": 50,
    "response": 81,
    "task": "response",
    "trial_type": "image-slider-response",
    "trial_index": 34,
    "time_elapsed": 130685,
    "internal_node_id": "0.0-3.0-1.15"
  },
  {
    "_id": "65d5315e9b6a410af49d4c37",
    "rt": 3489,
    "stimulus": "imgs/n127_match_4.jpg",
    "slider_start": 50,
    "response": 70,
    "task": "response",
    "trial_type": "image-slider-response",
    "trial_index": 36,
    "time_elapsed": 134679,
    "internal_node_id": "0.0-3.0-1.16"
  },
  {
    "_id": "65d531639b6a410af49d4c38",
    "rt": 4424,
    "stimulus": "imgs/n11_match_scr.jpg",
    "slider_start": 50,
    "response": 15,
    "task": "response",
    "trial_type": "image-slider-response",
    "trial_index": 38,
    "time_elapsed": 139607,
    "internal_node_id": "0.0-3.0-1.17"
  },
  {
    "_id": "65d531689b6a410af49d4c39",
    "rt": 4194,
    "stimulus": "imgs/p155_2.jpg",
    "slider_start": 50,
    "response": 72,
    "task": "response",
    "trial_type": "image-slider-response",
    "trial_index": 40,
    "time_elapsed": 144306,
    "internal_node_id": "0.0-3.0-1.18"
  },
  {
    "_id": "65d5317a9b6a410af49d4c3a",
    "rt": 17644,
    "stimulus": "imgs/n34_match.jpg",
    "slider_start": 50,
    "response": 10,
    "task": "response",
    "trial_type": "image-slider-response",
    "trial_index": 42,
    "time_elapsed": 162455,
    "internal_node_id": "0.0-3.0-1.19"
  },
  {
    "_id": "65d5317e9b6a410af49d4c3b",
    "rt": 3018,
    "stimulus": "imgs/n108_match_scr_1.jpg",
    "slider_start": 50,
    "response": 19,
    "task": "response",
    "trial_type": "image-slider-response",
    "trial_index": 44,
    "time_elapsed": 165979,
    "internal_node_id": "0.0-3.0-1.20"
  },
  {
    "_id": "65d531819b6a410af49d4c3c",
    "rt": 2458,
    "stimulus": "imgs/n11_match_scr_1.jpg",
    "slider_start": 50,
    "response": 11,
    "task": "response",
    "trial_type": "image-slider-response",
    "trial_index": 46,
    "time_elapsed": 168943,
    "internal_node_id": "0.0-3.0-1.21"
  },
  {
    "_id": "65d531849b6a410af49d4c3d",
    "rt": 2588,
    "stimulus": "imgs/p10_scr.jpg",
    "slider_start": 50,
    "response": 10,
    "task": "response",
    "trial_type": "image-slider-response",
    "trial_index": 48,
    "time_elapsed": 172036,
    "internal_node_id": "0.0-3.0-1.22"
  },
  {
    "_id": "65d531869b6a410af49d4c3e",
    "rt": 2290,
    "stimulus": "imgs/n156_match_scr.jpg",
    "slider_start": 50,
    "response": 15,
    "task": "response",
    "trial_type": "image-slider-response",
    "trial_index": 50,
    "time_elapsed": 174831,
    "internal_node_id": "0.0-3.0-1.23"
  },
  {
    "_id": "65d5318a9b6a410af49d4c3f",
    "rt": 3141,
    "stimulus": "imgs/p142_1.jpg",
    "slider_start": 50,
    "response": 32,
    "task": "response",
    "trial_type": "image-slider-response",
    "trial_index": 52,
    "time_elapsed": 178478,
    "internal_node_id": "0.0-3.0-1.24"
  },
  {
    "_id": "65d531d19b6a410af49d4c40",
    "rt": 31872,
    "stimulus": "imgs/p155_scr_3.jpg",
    "slider_start": 50,
    "response": 21,
    "task": "response",
    "trial_type": "image-slider-response",
    "trial_index": 4,
    "time_elapsed": 43721,
    "internal_node_id": "0.0-3.0-1.0"
  },
  {
    "_id": "65d531d49b6a410af49d4c41",
    "rt": 2878,
    "stimulus": "imgs/p135_1.jpg",
    "slider_start": 50,
    "response": 18,
    "task": "response",
    "trial_type": "image-slider-response",
    "trial_index": 6,
    "time_elapsed": 47106,
    "internal_node_id": "0.0-3.0-1.1"
  },
  {
    "_id": "65d532079b6a410af49d4c42",
    "rt": 49973,
    "stimulus": "imgs/n100_match_scr_2.jpg",
    "slider_start": 50,
    "response": 90,
    "task": "response",
    "trial_type": "image-slider-response",
    "trial_index": 8,
    "time_elapsed": 97585,
    "internal_node_id": "0.0-3.0-1.2"
  },
  {
    "_id": "65d532099b6a410af49d4c43",
    "rt": 2028,
    "stimulus": "imgs/p142_1.jpg",
    "slider_start": 50,
    "response": 71,
    "task": "response",
    "trial_type": "image-slider-response",
    "trial_index": 10,
    "time_elapsed": 100118,
    "internal_node_id": "0.0-3.0-1.3"
  },
  {
    "_id": "65d5320d9b6a410af49d4c44",
    "rt": 3114,
    "stimulus": "imgs/n123_match.jpg",
    "slider_start": 50,
    "response": 26,
    "task": "response",
    "trial_type": "image-slider-response",
    "trial_index": 12,
    "time_elapsed": 103737,
    "internal_node_id": "0.0-3.0-1.4"
  },
  {
    "_id": "65d532119b6a410af49d4c45",
    "rt": 3768,
    "stimulus": "imgs/p147_2.jpg",
    "slider_start": 50,
    "response": 74,
    "task": "response",
    "trial_type": "image-slider-response",
    "trial_index": 14,
    "time_elapsed": 108009,
    "internal_node_id": "0.0-3.0-1.5"
  },
  {
    "_id": "65d532179b6a410af49d4c46",
    "rt": 5503,
    "stimulus": "imgs/p59.jpg",
    "slider_start": 50,
    "response": 84,
    "task": "response",
    "trial_type": "image-slider-response",
    "trial_index": 16,
    "time_elapsed": 114017,
    "internal_node_id": "0.0-3.0-1.6"
  },
  {
    "_id": "65d532229b6a410af49d4c47",
    "rt": 10094,
    "stimulus": "imgs/n100_match_3.jpg",
    "slider_start": 50,
    "response": 25,
    "task": "response",
    "trial_type": "image-slider-response",
    "trial_index": 18,
    "time_elapsed": 124617,
    "internal_node_id": "0.0-3.0-1.7"
  },
  {
    "_id": "65d533119b6a410af49d4c48",
    "rt": 238262,
    "stimulus": "imgs/n43_match_scr_3.jpg",
    "slider_start": 50,
    "response": 22,
    "task": "response",
    "trial_type": "image-slider-response",
    "trial_index": 20,
    "time_elapsed": 363386,
    "internal_node_id": "0.0-3.0-1.8"
  },
  {
    "_id": "65d533149b6a410af49d4c49",
    "rt": 3162,
    "stimulus": "imgs/n159_match_scr_4.jpg",
    "slider_start": 50,
    "response": 18,
    "task": "response",
    "trial_type": "image-slider-response",
    "trial_index": 22,
    "time_elapsed": 367053,
    "internal_node_id": "0.0-3.0-1.9"
  },
  {
    "_id": "65d538d5c14471cd807c7a8f",
    "rt": 4306,
    "stimulus": "imgs/face01.jpg",
    "slider_start": 50,
    "response": 100,
    "task": "response",
    "trial_type": "image-slider-response",
    "trial_index": 3,
    "time_elapsed": 204800,
    "internal_node_id": "0.0-2.0-1.0"
  },
  {
    "_id": "65d538e1c14471cd807c7a90",
    "rt": 11759,
    "stimulus": "imgs/p150_scr.jpg",
    "slider_start": 50,
    "response": 49,
    "task": "response",
    "trial_type": "image-slider-response",
    "trial_index": 5,
    "time_elapsed": 217076,
    "internal_node_id": "0.0-2.0-1.1"
  },
  {
    "_id": "65d538e7c14471cd807c7a91",
    "rt": 5223,
    "stimulus": "imgs/p156_scr.jpg",
    "slider_start": 50,
    "response": 11,
    "task": "response",
    "trial_type": "image-slider-response",
    "trial_index": 7,
    "time_elapsed": 222816,
    "internal_node_id": "0.0-2.0-1.2"
  },
  {
    "_id": "65d538edc14471cd807c7a92",
    "rt": 5749,
    "stimulus": "imgs/p135_scr_1.jpg",
    "slider_start": 50,
    "response": 0,
    "task": "response",
    "trial_type": "image-slider-response",
    "trial_index": 9,
    "time_elapsed": 229084,
    "internal_node_id": "0.0-2.0-1.3"
  },
  {
    "_id": "65d538f2c14471cd807c7a93",
    "rt": 4735,
    "stimulus": "imgs/p43_scr_2.jpg",
    "slider_start": 50,
    "response": 0,
    "task": "response",
    "trial_type": "image-slider-response",
    "trial_index": 11,
    "time_elapsed": 234334,
    "internal_node_id": "0.0-2.0-1.4"
  },
  {
    "_id": "65d538f6c14471cd807c7a94",
    "rt": 3367,
    "stimulus": "imgs/face12.jpg",
    "slider_start": 50,
    "response": 100,
    "task": "response",
    "trial_type": "image-slider-response",
    "trial_index": 13,
    "time_elapsed": 238217,
    "internal_node_id": "0.0-2.0-1.5"
  },
  {
    "_id": "65d538fcc14471cd807c7a95",
    "rt": 5627,
    "stimulus": "imgs/n135_match_scr_2.jpg",
    "slider_start": 50,
    "response": 0,
    "task": "response",
    "trial_type": "image-slider-response",
    "trial_index": 15,
    "time_elapsed": 244363,
    "internal_node_id": "0.0-2.0-1.6"
  },
  {
    "_id": "65d53903c14471cd807c7a96",
    "rt": 6460,
    "stimulus": "imgs/p156.jpg",
    "slider_start": 50,
    "response": 79,
    "task": "response",
    "trial_type": "image-slider-response",
    "trial_index": 17,
    "time_elapsed": 251339,
    "internal_node_id": "0.0-2.0-1.7"
  },
  {
    "_id": "65d53908c14471cd807c7a97",
    "rt": 4324,
    "stimulus": "imgs/n128_match_scr_3.jpg",
    "slider_start": 50,
    "response": 0,
    "task": "response",
    "trial_type": "image-slider-response",
    "trial_index": 19,
    "time_elapsed": 256179,
    "internal_node_id": "0.0-2.0-1.8"
  },
  {
    "_id": "65d53911c14471cd807c7a98",
    "rt": 8809,
    "stimulus": "imgs/n143_match_scr_2.jpg",
    "slider_start": 50,
    "response": 0,
    "task": "response",
    "trial_type": "image-slider-response",
    "trial_index": 21,
    "time_elapsed": 265505,
    "internal_node_id": "0.0-2.0-1.9"
  },
  {
    "_id": "65d53916c14471cd807c7a99",
    "rt": 4327,
    "stimulus": "imgs/n43_match_3.jpg",
    "slider_start": 50,
    "response": 0,
    "task": "response",
    "trial_type": "image-slider-response",
    "trial_index": 23,
    "time_elapsed": 270347,
    "internal_node_id": "0.0-2.0-1.10"
  },
  {
    "_id": "65d5391ac14471cd807c7a9a",
    "rt": 3224,
    "stimulus": "imgs/face30.jpg",
    "slider_start": 50,
    "response": 100,
    "task": "response",
    "trial_type": "image-slider-response",
    "trial_index": 25,
    "time_elapsed": 274088,
    "internal_node_id": "0.0-2.0-1.11"
  },
  {
    "_id": "65d5391ec14471cd807c7a9b",
    "rt": 3584,
    "stimulus": "imgs/p146_scr_3.jpg",
    "slider_start": 50,
    "response": 0,
    "task": "response",
    "trial_type": "image-slider-response",
    "trial_index": 27,
    "time_elapsed": 278189,
    "internal_node_id": "0.0-2.0-1.12"
  },
  {
    "_id": "65d53922c14471cd807c7a9c",
    "rt": 3584,
    "stimulus": "imgs/n126_match_1.jpg",
    "slider_start": 50,
    "response": 0,
    "task": "response",
    "trial_type": "image-slider-response",
    "trial_index": 29,
    "time_elapsed": 282289,
    "internal_node_id": "0.0-2.0-1.13"
  },
  {
    "_id": "65d5392ac14471cd807c7a9d",
    "rt": 7026,
    "stimulus": "imgs/n141_match_4.jpg",
    "slider_start": 50,
    "response": 60,
    "task": "response",
    "trial_type": "image-slider-response",
    "trial_index": 31,
    "time_elapsed": 289832,
    "internal_node_id": "0.0-2.0-1.14"
  },
  {
    "_id": "65d53931c14471cd807c7a9e",
    "rt": 7042,
    "stimulus": "imgs/p37_1.jpg",
    "slider_start": 50,
    "response": 11,
    "task": "response",
    "trial_type": "image-slider-response",
    "trial_index": 33,
    "time_elapsed": 297390,
    "internal_node_id": "0.0-2.0-1.15"
  },
  {
    "_id": "65d53939c14471cd807c7a9f",
    "rt": 7174,
    "stimulus": "imgs/n119_match_scr_3.jpg",
    "slider_start": 50,
    "response": 50,
    "task": "response",
    "trial_type": "image-slider-response",
    "trial_index": 35,
    "time_elapsed": 305070,
    "internal_node_id": "0.0-2.0-1.16"
  },
  {
    "_id": "65d53941c14471cd807c7aa0",
    "rt": 7822,
    "stimulus": "imgs/n80_match_scr_2.jpg",
    "slider_start": 50,
    "response": 0,
    "task": "response",
    "trial_type": "image-slider-response",
    "trial_index": 37,
    "time_elapsed": 313409,
    "internal_node_id": "0.0-2.0-1.17"
  },
  {
    "_id": "65d53949c14471cd807c7aa1",
    "rt": 7100,
    "stimulus": "imgs/p150_scr_3.jpg",
    "slider_start": 50,
    "response": 9,
    "task": "response",
    "trial_type": "image-slider-response",
    "trial_index": 39,
    "time_elapsed": 321026,
    "internal_node_id": "0.0-2.0-1.18"
  },
  {
    "_id": "65d5394ec14471cd807c7aa2",
    "rt": 4406,
    "stimulus": "imgs/n141_match_scr_1.jpg",
    "slider_start": 50,
    "response": 0,
    "task": "response",
    "trial_type": "image-slider-response",
    "trial_index": 41,
    "time_elapsed": 325948,
    "internal_node_id": "0.0-2.0-1.19"
  },
  {
    "_id": "65d53953c14471cd807c7aa3",
    "rt": 4682,
    "stimulus": "imgs/n39_match_scr_3.jpg",
    "slider_start": 50,
    "response": 0,
    "task": "response",
    "trial_type": "image-slider-response",
    "trial_index": 43,
    "time_elapsed": 331145,
    "internal_node_id": "0.0-2.0-1.20"
  },
  {
    "_id": "65d5395ec14471cd807c7aa4",
    "rt": 10439,
    "stimulus": "imgs/p119_scr_3.jpg",
    "slider_start": 50,
    "response": 20,
    "task": "response",
    "trial_type": "image-slider-response",
    "trial_index": 45,
    "time_elapsed": 342100,
    "internal_node_id": "0.0-2.0-1.21"
  },
  {
    "_id": "65d53965c14471cd807c7aa5",
    "rt": 6812,
    "stimulus": "imgs/n39_match_scr_2.jpg",
    "slider_start": 50,
    "response": 0,
    "task": "response",
    "trial_type": "image-slider-response",
    "trial_index": 47,
    "time_elapsed": 349428,
    "internal_node_id": "0.0-2.0-1.22"
  },
  {
    "_id": "65d5396ac14471cd807c7aa6",
    "rt": 3859,
    "stimulus": "imgs/n59_match_4.jpg",
    "slider_start": 50,
    "response": 0,
    "task": "response",
    "trial_type": "image-slider-response",
    "trial_index": 49,
    "time_elapsed": 353804,
    "internal_node_id": "0.0-2.0-1.23"
  },
  {
    "_id": "65d5396fc14471cd807c7aa7",
    "rt": 4529,
    "stimulus": "imgs/p39_4.jpg",
    "slider_start": 50,
    "response": 0,
    "task": "response",
    "trial_type": "image-slider-response",
    "trial_index": 51,
    "time_elapsed": 358850,
    "internal_node_id": "0.0-2.0-1.24"
  },
  {
    "_id": "65d55ad4c14471cd807c7aa8",
    "rt": 58600,
    "stimulus": "imgs/p141_2.jpg",
    "slider_start": 50,
    "response": 31,
    "task": "response",
    "trial_type": "image-slider-response",
    "trial_index": 3,
    "time_elapsed": 66845,
    "internal_node_id": "0.0-2.0-1.0"
  },
  {
    "_id": "65d55ae2c14471cd807c7aa9",
    "rt": 12991,
    "stimulus": "imgs/n34_match_scr_4.jpg",
    "slider_start": 50,
    "response": 0,
    "task": "response",
    "trial_type": "image-slider-response",
    "trial_index": 5,
    "time_elapsed": 80373,
    "internal_node_id": "0.0-2.0-1.1"
  },
  {
    "_id": "65d55afec14471cd807c7aaa",
    "rt": 27491,
    "stimulus": "imgs/n37_match_scr_2.jpg",
    "slider_start": 50,
    "response": 60,
    "task": "response",
    "trial_type": "image-slider-response",
    "trial_index": 7,
    "time_elapsed": 108397,
    "internal_node_id": "0.0-2.0-1.2"
  },
  {
    "_id": "65d55b17c14471cd807c7aab",
    "rt": 24613,
    "stimulus": "imgs/p127_4.jpg",
    "slider_start": 50,
    "response": 12,
    "task": "response",
    "trial_type": "image-slider-response",
    "trial_index": 9,
    "time_elapsed": 133543,
    "internal_node_id": "0.0-2.0-1.3"
  },
  {
    "_id": "65d55b36c14471cd807c7aac",
    "rt": 30148,
    "stimulus": "imgs/n150_match_4.jpg",
    "slider_start": 50,
    "response": 11,
    "task": "response",
    "trial_type": "image-slider-response",
    "trial_index": 11,
    "time_elapsed": 164233,
    "internal_node_id": "0.0-2.0-1.4"
  },
  {
    "_id": "65d55b55c14471cd807c7aad",
    "rt": 30827,
    "stimulus": "imgs/n135_match_scr_3.jpg",
    "slider_start": 50,
    "response": 73,
    "task": "response",
    "trial_type": "image-slider-response",
    "trial_index": 13,
    "time_elapsed": 195596,
    "internal_node_id": "0.0-2.0-1.5"
  },
  {
    "_id": "65d55b85c14471cd807c7aae",
    "rt": 47190,
    "stimulus": "imgs/n118_match_scr_1.jpg",
    "slider_start": 50,
    "response": 0,
    "task": "response",
    "trial_type": "image-slider-response",
    "trial_index": 15,
    "time_elapsed": 243318,
    "internal_node_id": "0.0-2.0-1.6"
  },
  {
    "_id": "65d55ba1c14471cd807c7aaf",
    "rt": 27342,
    "stimulus": "imgs/n108_match.jpg",
    "slider_start": 50,
    "response": 49,
    "task": "response",
    "trial_type": "image-slider-response",
    "trial_index": 17,
    "time_elapsed": 271194,
    "internal_node_id": "0.0-2.0-1.7"
  },
  {
    "_id": "65d55bbfc14471cd807c7ab0",
    "rt": 29484,
    "stimulus": "imgs/p156_scr.jpg",
    "slider_start": 50,
    "response": 100,
    "task": "response",
    "trial_type": "image-slider-response",
    "trial_index": 19,
    "time_elapsed": 301213,
    "internal_node_id": "0.0-2.0-1.8"
  },
  {
    "_id": "65d55bc8c14471cd807c7ab1",
    "rt": 9304,
    "stimulus": "imgs/p119_1.jpg",
    "slider_start": 50,
    "response": 78,
    "task": "response",
    "trial_type": "image-slider-response",
    "trial_index": 21,
    "time_elapsed": 311051,
    "internal_node_id": "0.0-2.0-1.9"
  },
  {
    "_id": "65d55bdfc14471cd807c7ab2",
    "rt": 21981,
    "stimulus": "imgs/n37_match_3.jpg",
    "slider_start": 50,
    "response": 16,
    "task": "response",
    "trial_type": "image-slider-response",
    "trial_index": 23,
    "time_elapsed": 333563,
    "internal_node_id": "0.0-2.0-1.10"
  },
  {
    "_id": "65d55be7c14471cd807c7ab3",
    "rt": 7162,
    "stimulus": "imgs/n46_match_scr.jpg",
    "slider_start": 50,
    "response": 89,
    "task": "response",
    "trial_type": "image-slider-response",
    "trial_index": 25,
    "time_elapsed": 341254,
    "internal_node_id": "0.0-2.0-1.11"
  },
  {
    "_id": "65d55c00c14471cd807c7ab4",
    "rt": 24812,
    "stimulus": "imgs/n10_match_3.jpg",
    "slider_start": 50,
    "response": 14,
    "task": "response",
    "trial_type": "image-slider-response",
    "trial_index": 27,
    "time_elapsed": 366596,
    "internal_node_id": "0.0-2.0-1.12"
  },
  {
    "_id": "65d55c0fc14471cd807c7ab5",
    "rt": 14570,
    "stimulus": "imgs/p119_4.jpg",
    "slider_start": 50,
    "response": 42,
    "task": "response",
    "trial_type": "image-slider-response",
    "trial_index": 29,
    "time_elapsed": 381699,
    "internal_node_id": "0.0-2.0-1.13"
  },
  {
    "_id": "65d55c17c14471cd807c7ab6",
    "rt": 7217,
    "stimulus": "imgs/p11_scr.jpg",
    "slider_start": 50,
    "response": 79,
    "task": "response",
    "trial_type": "image-slider-response",
    "trial_index": 31,
    "time_elapsed": 389444,
    "internal_node_id": "0.0-2.0-1.14"
  },
  {
    "_id": "65d55c29c14471cd807c7ab7",
    "rt": 17943,
    "stimulus": "imgs/p20_2.jpg",
    "slider_start": 50,
    "response": 43,
    "task": "response",
    "trial_type": "image-slider-response",
    "trial_index": 33,
    "time_elapsed": 407920,
    "internal_node_id": "0.0-2.0-1.15"
  },
  {
    "_id": "65d55c36c14471cd807c7ab8",
    "rt": 12478,
    "stimulus": "imgs/n159_match_scr_3.jpg",
    "slider_start": 50,
    "response": 10,
    "task": "response",
    "trial_type": "image-slider-response",
    "trial_index": 35,
    "time_elapsed": 420931,
    "internal_node_id": "0.0-2.0-1.16"
  },
  {
    "_id": "65d55c42c14471cd807c7ab9",
    "rt": 11412,
    "stimulus": "imgs/p123_scr_2.jpg",
    "slider_start": 50,
    "response": 77,
    "task": "response",
    "trial_type": "image-slider-response",
    "trial_index": 37,
    "time_elapsed": 432871,
    "internal_node_id": "0.0-2.0-1.17"
  },
  {
    "_id": "65d55c4dc14471cd807c7aba",
    "rt": 10118,
    "stimulus": "imgs/n141_match.jpg",
    "slider_start": 50,
    "response": 81,
    "task": "response",
    "trial_type": "image-slider-response",
    "trial_index": 39,
    "time_elapsed": 443515,
    "internal_node_id": "0.0-2.0-1.18"
  },
  {
    "_id": "65d55c62c14471cd807c7abb",
    "rt": 20403,
    "stimulus": "imgs/n11_match_1.jpg",
    "slider_start": 50,
    "response": 92,
    "task": "response",
    "trial_type": "image-slider-response",
    "trial_index": 41,
    "time_elapsed": 464436,
    "internal_node_id": "0.0-2.0-1.19"
  },
  {
    "_id": "65d55c67c14471cd807c7abc",
    "rt": 5199,
    "stimulus": "imgs/n46_match_2.jpg",
    "slider_start": 50,
    "response": 96,
    "task": "response",
    "trial_type": "image-slider-response",
    "trial_index": 43,
    "time_elapsed": 470164,
    "internal_node_id": "0.0-2.0-1.20"
  },
  {
    "_id": "65d55c73c14471cd807c7abd",
    "rt": 11380,
    "stimulus": "imgs/p143_3.jpg",
    "slider_start": 50,
    "response": 18,
    "task": "response",
    "trial_type": "image-slider-response",
    "trial_index": 45,
    "time_elapsed": 482071,
    "internal_node_id": "0.0-2.0-1.21"
  },
  {
    "_id": "65d55c8fc14471cd807c7abe",
    "rt": 27020,
    "stimulus": "imgs/n127_match.jpg",
    "slider_start": 50,
    "response": 46,
    "task": "response",
    "trial_type": "image-slider-response",
    "trial_index": 47,
    "time_elapsed": 509618,
    "internal_node_id": "0.0-2.0-1.22"
  },
  {
    "_id": "65d55ca8c14471cd807c7abf",
    "rt": 24245,
    "stimulus": "imgs/p141_1.jpg",
    "slider_start": 50,
    "response": 33,
    "task": "response",
    "trial_type": "image-slider-response",
    "trial_index": 49,
    "time_elapsed": 534383,
    "internal_node_id": "0.0-2.0-1.23"
  },
  {
    "_id": "65d55cb2c14471cd807c7ac0",
    "rt": 9496,
    "stimulus": "imgs/p127_scr_1.jpg",
    "slider_start": 50,
    "response": 68,
    "task": "response",
    "trial_type": "image-slider-response",
    "trial_index": 51,
    "time_elapsed": 544411,
    "internal_node_id": "0.0-2.0-1.24"
  },
  {
    "_id": "65d5690bc14471cd807c7ac1",
    "rt": 19999,
    "stimulus": "imgs/p37_3.jpg",
    "slider_start": 50,
    "response": 0,
    "task": "response",
    "trial_type": "image-slider-response",
    "trial_index": 3,
    "time_elapsed": 361866,
    "internal_node_id": "0.0-2.0-1.0"
  },
  {
    "_id": "65d56921c14471cd807c7ac2",
    "rt": 21509,
    "stimulus": "imgs/p80_scr.jpg",
    "slider_start": 50,
    "response": 0,
    "task": "response",
    "trial_type": "image-slider-response",
    "trial_index": 5,
    "time_elapsed": 383896,
    "internal_node_id": "0.0-2.0-1.1"
  },
  {
    "_id": "65d5692ec14471cd807c7ac3",
    "rt": 12308,
    "stimulus": "imgs/n10_match_scr_2.jpg",
    "slider_start": 50,
    "response": 0,
    "task": "response",
    "trial_type": "image-slider-response",
    "trial_index": 7,
    "time_elapsed": 396722,
    "internal_node_id": "0.0-2.0-1.2"
  },
  {
    "_id": "65d5693cc14471cd807c7ac4",
    "rt": 13666,
    "stimulus": "imgs/p159_scr_2.jpg",
    "slider_start": 50,
    "response": 0,
    "task": "response",
    "trial_type": "image-slider-response",
    "trial_index": 9,
    "time_elapsed": 410900,
    "internal_node_id": "0.0-2.0-1.3"
  },
  {
    "_id": "65d56956c14471cd807c7ac5",
    "rt": 25689,
    "stimulus": "imgs/n43_match_1.jpg",
    "slider_start": 50,
    "response": 0,
    "task": "response",
    "trial_type": "image-slider-response",
    "trial_index": 11,
    "time_elapsed": 437106,
    "internal_node_id": "0.0-2.0-1.4"
  },
  {
    "_id": "65d56963c14471cd807c7ac6",
    "rt": 12408,
    "stimulus": "imgs/n126_match_scr_2.jpg",
    "slider_start": 50,
    "response": 49,
    "task": "response",
    "trial_type": "image-slider-response",
    "trial_index": 13,
    "time_elapsed": 450030,
    "internal_node_id": "0.0-2.0-1.5"
  },
  {
    "_id": "65d5696fc14471cd807c7ac7",
    "rt": 11079,
    "stimulus": "imgs/p81_3.jpg",
    "slider_start": 50,
    "response": 80,
    "task": "response",
    "trial_type": "image-slider-response",
    "trial_index": 15,
    "time_elapsed": 461616,
    "internal_node_id": "0.0-2.0-1.6"
  },
  {
    "_id": "65d56974c14471cd807c7ac8",
    "rt": 4582,
    "stimulus": "imgs/p123_3.jpg",
    "slider_start": 50,
    "response": 38,
    "task": "response",
    "trial_type": "image-slider-response",
    "trial_index": 17,
    "time_elapsed": 466722,
    "internal_node_id": "0.0-2.0-1.7"
  },
  {
    "_id": "65d5697fc14471cd807c7ac9",
    "rt": 11167,
    "stimulus": "imgs/face10.jpg",
    "slider_start": 50,
    "response": 99,
    "task": "response",
    "trial_type": "image-slider-response",
    "trial_index": 19,
    "time_elapsed": 478407,
    "internal_node_id": "0.0-2.0-1.8"
  },
  {
    "_id": "65d56984c14471cd807c7aca",
    "rt": 4159,
    "stimulus": "imgs/n97_match_1.jpg",
    "slider_start": 50,
    "response": 17,
    "task": "response",
    "trial_type": "image-slider-response",
    "trial_index": 21,
    "time_elapsed": 483085,
    "internal_node_id": "0.0-2.0-1.9"
  },
  {
    "_id": "65d5698ec14471cd807c7acb",
    "rt": 9034,
    "stimulus": "imgs/p155_2.jpg",
    "slider_start": 50,
    "response": 71,
    "task": "response",
    "trial_type": "image-slider-response",
    "trial_index": 23,
    "time_elapsed": 492641,
    "internal_node_id": "0.0-2.0-1.10"
  },
  {
    "_id": "65d56993c14471cd807c7acc",
    "rt": 5206,
    "stimulus": "imgs/p108_scr_3.jpg",
    "slider_start": 50,
    "response": 59,
    "task": "response",
    "trial_type": "image-slider-response",
    "trial_index": 25,
    "time_elapsed": 498368,
    "internal_node_id": "0.0-2.0-1.11"
  },
  {
    "_id": "65d5699cc14471cd807c7acd",
    "rt": 7962,
    "stimulus": "imgs/n80_match_2.jpg",
    "slider_start": 50,
    "response": 59,
    "task": "response",
    "trial_type": "image-slider-response",
    "trial_index": 27,
    "time_elapsed": 506848,
    "internal_node_id": "0.0-2.0-1.12"
  },
  {
    "_id": "65d569a0c14471cd807c7ace",
    "rt": 4107,
    "stimulus": "imgs/p142_3.jpg",
    "slider_start": 50,
    "response": 69,
    "task": "response",
    "trial_type": "image-slider-response",
    "trial_index": 29,
    "time_elapsed": 511486,
    "internal_node_id": "0.0-2.0-1.13"
  },
  {
    "_id": "65d569a4c14471cd807c7acf",
    "rt": 3232,
    "stimulus": "imgs/n10_match.jpg",
    "slider_start": 50,
    "response": 50,
    "task": "response",
    "trial_type": "image-slider-response",
    "trial_index": 31,
    "time_elapsed": 515240,
    "internal_node_id": "0.0-2.0-1.14"
  },
  {
    "_id": "65d569d4c14471cd807c7ad0",
    "rt": 47616,
    "stimulus": "imgs/n83_match_scr.jpg",
    "slider_start": 50,
    "response": 46,
    "task": "response",
    "trial_type": "image-slider-response",
    "trial_index": 33,
    "time_elapsed": 563372,
    "internal_node_id": "0.0-2.0-1.15"
  },
  {
    "_id": "65d569e0c14471cd807c7ad1",
    "rt": 11516,
    "stimulus": "imgs/p100_1.jpg",
    "slider_start": 50,
    "response": 50,
    "task": "response",
    "trial_type": "image-slider-response",
    "trial_index": 35,
    "time_elapsed": 575405,
    "internal_node_id": "0.0-2.0-1.16"
  },
  {
    "_id": "65d569e5c14471cd807c7ad2",
    "rt": 3989,
    "stimulus": "imgs/n147_match_1.jpg",
    "slider_start": 50,
    "response": 51,
    "task": "response",
    "trial_type": "image-slider-response",
    "trial_index": 37,
    "time_elapsed": 579944,
    "internal_node_id": "0.0-2.0-1.17"
  },
  {
    "_id": "65d569eac14471cd807c7ad3",
    "rt": 4634,
    "stimulus": "imgs/n97_match_1.jpg",
    "slider_start": 50,
    "response": 48,
    "task": "response",
    "trial_type": "image-slider-response",
    "trial_index": 39,
    "time_elapsed": 585097,
    "internal_node_id": "0.0-2.0-1.18"
  },
  {
    "_id": "65d569efc14471cd807c7ad4",
    "rt": 4521,
    "stimulus": "imgs/p81_scr_1.jpg",
    "slider_start": 50,
    "response": 49,
    "task": "response",
    "trial_type": "image-slider-response",
    "trial_index": 41,
    "time_elapsed": 590129,
    "internal_node_id": "0.0-2.0-1.19"
  },
  {
    "_id": "65d569f3c14471cd807c7ad5",
    "rt": 3643,
    "stimulus": "imgs/n150_match_3.jpg",
    "slider_start": 50,
    "response": 49,
    "task": "response",
    "trial_type": "image-slider-response",
    "trial_index": 43,
    "time_elapsed": 594280,
    "internal_node_id": "0.0-2.0-1.20"
  },
  {
    "_id": "65d569f7c14471cd807c7ad6",
    "rt": 3548,
    "stimulus": "imgs/p141_4.jpg",
    "slider_start": 50,
    "response": 51,
    "task": "response",
    "trial_type": "image-slider-response",
    "trial_index": 45,
    "time_elapsed": 598360,
    "internal_node_id": "0.0-2.0-1.21"
  },
  {
    "_id": "65d569fbc14471cd807c7ad7",
    "rt": 3483,
    "stimulus": "imgs/p146_3.jpg",
    "slider_start": 50,
    "response": 49,
    "task": "response",
    "trial_type": "image-slider-response",
    "trial_index": 47,
    "time_elapsed": 602363,
    "internal_node_id": "0.0-2.0-1.22"
  },
  {
    "_id": "65d569ffc14471cd807c7ad8",
    "rt": 3044,
    "stimulus": "imgs/n39_match_3.jpg",
    "slider_start": 50,
    "response": 51,
    "task": "response",
    "trial_type": "image-slider-response",
    "trial_index": 49,
    "time_elapsed": 605925,
    "internal_node_id": "0.0-2.0-1.23"
  },
  {
    "_id": "65d56a0ac14471cd807c7ad9",
    "rt": 10237,
    "stimulus": "imgs/p155_scr.jpg",
    "slider_start": 50,
    "response": 50,
    "task": "response",
    "trial_type": "image-slider-response",
    "trial_index": 51,
    "time_elapsed": 616667,
    "internal_node_id": "0.0-2.0-1.24"
  },
  {
    "_id": "65d56a65c14471cd807c7ada",
    "rt": 5524,
    "stimulus": "imgs/n119_match_scr_1.jpg",
    "slider_start": 50,
    "response": 51,
    "task": "response",
    "trial_type": "image-slider-response",
    "trial_index": 3,
    "time_elapsed": 12912,
    "internal_node_id": "0.0-2.0-1.0"
  },
  {
    "_id": "65d56a69c14471cd807c7adb",
    "rt": 2962,
    "stimulus": "imgs/n127_match_scr_3.jpg",
    "slider_start": 50,
    "response": 51,
    "task": "response",
    "trial_type": "image-slider-response",
    "trial_index": 5,
    "time_elapsed": 16393,
    "internal_node_id": "0.0-2.0-1.1"
  },
  {
    "_id": "65d56a6cc14471cd807c7adc",
    "rt": 2943,
    "stimulus": "imgs/n159_match_scr_4.jpg",
    "slider_start": 50,
    "response": 50,
    "task": "response",
    "trial_type": "image-slider-response",
    "trial_index": 7,
    "time_elapsed": 19854,
    "internal_node_id": "0.0-2.0-1.2"
  },
  {
    "_id": "65d56a70c14471cd807c7add",
    "rt": 3212,
    "stimulus": "imgs/n11_match_2.jpg",
    "slider_start": 50,
    "response": 49,
    "task": "response",
    "trial_type": "image-slider-response",
    "trial_index": 9,
    "time_elapsed": 23583,
    "internal_node_id": "0.0-2.0-1.3"
  },
  {
    "_id": "65d56a74c14471cd807c7ade",
    "rt": 3269,
    "stimulus": "imgs/n100_match_2.jpg",
    "slider_start": 50,
    "response": 51,
    "task": "response",
    "trial_type": "image-slider-response",
    "trial_index": 11,
    "time_elapsed": 27370,
    "internal_node_id": "0.0-2.0-1.4"
  },
  {
    "_id": "65d56a78c14471cd807c7adf",
    "rt": 4187,
    "stimulus": "imgs/n37_match.jpg",
    "slider_start": 50,
    "response": 51,
    "task": "response",
    "trial_type": "image-slider-response",
    "trial_index": 13,
    "time_elapsed": 32078,
    "internal_node_id": "0.0-2.0-1.5"
  },
  {
    "_id": "65d56a7ec14471cd807c7ae0",
    "rt": 4967,
    "stimulus": "imgs/n141_match_scr_1.jpg",
    "slider_start": 50,
    "response": 51,
    "task": "response",
    "trial_type": "image-slider-response",
    "trial_index": 15,
    "time_elapsed": 37597,
    "internal_node_id": "0.0-2.0-1.6"
  },
  {
    "_id": "65d56a82c14471cd807c7ae1",
    "rt": 3151,
    "stimulus": "imgs/p20_4.jpg",
    "slider_start": 50,
    "response": 50,
    "task": "response",
    "trial_type": "image-slider-response",
    "trial_index": 17,
    "time_elapsed": 41264,
    "internal_node_id": "0.0-2.0-1.7"
  },
  {
    "_id": "65d56a86c14471cd807c7ae2",
    "rt": 4260,
    "stimulus": "imgs/p128_scr_4.jpg",
    "slider_start": 50,
    "response": 50,
    "task": "response",
    "trial_type": "image-slider-response",
    "trial_index": 19,
    "time_elapsed": 46044,
    "internal_node_id": "0.0-2.0-1.8"
  },
  {
    "_id": "65d56a8ec14471cd807c7ae3",
    "rt": 7482,
    "stimulus": "imgs/p156_4.jpg",
    "slider_start": 50,
    "response": 50,
    "task": "response",
    "trial_type": "image-slider-response",
    "trial_index": 21,
    "time_elapsed": 54039,
    "internal_node_id": "0.0-2.0-1.9"
  },
  {
    "_id": "65d56a93c14471cd807c7ae4",
    "rt": 4178,
    "stimulus": "imgs/p59_scr_3.jpg",
    "slider_start": 50,
    "response": 50,
    "task": "response",
    "trial_type": "image-slider-response",
    "trial_index": 23,
    "time_elapsed": 58740,
    "internal_node_id": "0.0-2.0-1.10"
  },
  {
    "_id": "65d56a9ac14471cd807c7ae5",
    "rt": 6535,
    "stimulus": "imgs/p37_4.jpg",
    "slider_start": 50,
    "response": 52,
    "task": "response",
    "trial_type": "image-slider-response",
    "trial_index": 25,
    "time_elapsed": 65793,
    "internal_node_id": "0.0-2.0-1.11"
  },
  {
    "_id": "65d63e1fc14471cd807c7ae6",
    "rt": 4998,
    "stimulus": "imgs/p20_scr_2.jpg",
    "slider_start": 50,
    "response": 63,
    "task": "response",
    "trial_type": "image-slider-response",
    "trial_index": 3,
    "time_elapsed": 235459,
    "internal_node_id": "0.0-2.0-1.0"
  },
  {
    "_id": "65d63e24c14471cd807c7ae7",
    "rt": 4202,
    "stimulus": "imgs/n128_match_scr_2.jpg",
    "slider_start": 50,
    "response": 4,
    "task": "response",
    "trial_type": "image-slider-response",
    "trial_index": 5,
    "time_elapsed": 240164,
    "internal_node_id": "0.0-2.0-1.1"
  },
  {
    "_id": "65d6429bc14471cd807c7ae8",
    "rt": 10995,
    "stimulus": "imgs/p128_scr_3.jpg",
    "slider_start": 50,
    "response": 9,
    "task": "response",
    "trial_type": "image-slider-response",
    "trial_index": 3,
    "time_elapsed": 34889,
    "internal_node_id": "0.0-2.0-1.0"
  },
  {
    "_id": "65d642a1c14471cd807c7ae9",
    "rt": 6342,
    "stimulus": "imgs/p127_scr_4.jpg",
    "slider_start": 50,
    "response": 6,
    "task": "response",
    "trial_type": "image-slider-response",
    "trial_index": 5,
    "time_elapsed": 41745,
    "internal_node_id": "0.0-2.0-1.1"
  },
  {
    "_id": "65d642abc14471cd807c7aea",
    "rt": 8879,
    "stimulus": "imgs/n150_match_scr_3.jpg",
    "slider_start": 50,
    "response": 11,
    "task": "response",
    "trial_type": "image-slider-response",
    "trial_index": 7,
    "time_elapsed": 51138,
    "internal_node_id": "0.0-2.0-1.2"
  },
  {
    "_id": "65d642b1c14471cd807c7aeb",
    "rt": 5806,
    "stimulus": "imgs/n118_match_3.jpg",
    "slider_start": 50,
    "response": 1,
    "task": "response",
    "trial_type": "image-slider-response",
    "trial_index": 9,
    "time_elapsed": 57449,
    "internal_node_id": "0.0-2.0-1.3"
  },
  {
    "_id": "65d642b6c14471cd807c7aec",
    "rt": 4272,
    "stimulus": "imgs/p46_scr_2.jpg",
    "slider_start": 50,
    "response": 0,
    "task": "response",
    "trial_type": "image-slider-response",
    "trial_index": 11,
    "time_elapsed": 62226,
    "internal_node_id": "0.0-2.0-1.4"
  },
  {
    "_id": "65d642bbc14471cd807c7aed",
    "rt": 4750,
    "stimulus": "imgs/n113_match_4.jpg",
    "slider_start": 50,
    "response": 0,
    "task": "response",
    "trial_type": "image-slider-response",
    "trial_index": 13,
    "time_elapsed": 67482,
    "internal_node_id": "0.0-2.0-1.5"
  },
  {
    "_id": "65d642bfc14471cd807c7aee",
    "rt": 3676,
    "stimulus": "imgs/n147_match_1.jpg",
    "slider_start": 50,
    "response": 0,
    "task": "response",
    "trial_type": "image-slider-response",
    "trial_index": 15,
    "time_elapsed": 71666,
    "internal_node_id": "0.0-2.0-1.6"
  },
  {
    "_id": "65d642c3c14471cd807c7aef",
    "rt": 3064,
    "stimulus": "imgs/n80_match_scr_4.jpg",
    "slider_start": 50,
    "response": 0,
    "task": "response",
    "trial_type": "image-slider-response",
    "trial_index": 17,
    "time_elapsed": 75242,
    "internal_node_id": "0.0-2.0-1.7"
  },
  {
    "_id": "65d642c7c14471cd807c7af0",
    "rt": 3790,
    "stimulus": "imgs/p118.jpg",
    "slider_start": 50,
    "response": 100,
    "task": "response",
    "trial_type": "image-slider-response",
    "trial_index": 19,
    "time_elapsed": 79546,
    "internal_node_id": "0.0-2.0-1.8"
  },
  {
    "_id": "65d642ccc14471cd807c7af1",
    "rt": 4179,
    "stimulus": "imgs/p135_2.jpg",
    "slider_start": 50,
    "response": 0,
    "task": "response",
    "trial_type": "image-slider-response",
    "trial_index": 21,
    "time_elapsed": 84234,
    "internal_node_id": "0.0-2.0-1.9"
  },
  {
    "_id": "65d642d0c14471cd807c7af2",
    "rt": 3289,
    "stimulus": "imgs/p10_scr_2.jpg",
    "slider_start": 50,
    "response": 0,
    "task": "response",
    "trial_type": "image-slider-response",
    "trial_index": 23,
    "time_elapsed": 88034,
    "internal_node_id": "0.0-2.0-1.10"
  },
  {
    "_id": "65d642d5c14471cd807c7af3",
    "rt": 4832,
    "stimulus": "imgs/p100_scr_2.jpg",
    "slider_start": 50,
    "response": 61,
    "task": "response",
    "trial_type": "image-slider-response",
    "trial_index": 25,
    "time_elapsed": 93370,
    "internal_node_id": "0.0-2.0-1.11"
  },
  {
    "_id": "65d642d9c14471cd807c7af4",
    "rt": 3317,
    "stimulus": "imgs/n20_match_scr_2.jpg",
    "slider_start": 50,
    "response": 0,
    "task": "response",
    "trial_type": "image-slider-response",
    "trial_index": 27,
    "time_elapsed": 97193,
    "internal_node_id": "0.0-2.0-1.12"
  },
  {
    "_id": "65d642ddc14471cd807c7af5",
    "rt": 3222,
    "stimulus": "imgs/n147_match_scr_1.jpg",
    "slider_start": 50,
    "response": 0,
    "task": "response",
    "trial_type": "image-slider-response",
    "trial_index": 29,
    "time_elapsed": 100922,
    "internal_node_id": "0.0-2.0-1.13"
  },
  {
    "_id": "65d642e0c14471cd807c7af6",
    "rt": 3376,
    "stimulus": "imgs/p81_3.jpg",
    "slider_start": 50,
    "response": 0,
    "task": "response",
    "trial_type": "image-slider-response",
    "trial_index": 31,
    "time_elapsed": 104803,
    "internal_node_id": "0.0-2.0-1.14"
  },
  {
    "_id": "65d642e5c14471cd807c7af7",
    "rt": 3649,
    "stimulus": "imgs/n119_match_2.jpg",
    "slider_start": 50,
    "response": 0,
    "task": "response",
    "trial_type": "image-slider-response",
    "trial_index": 33,
    "time_elapsed": 108954,
    "internal_node_id": "0.0-2.0-1.15"
  },
  {
    "_id": "65d642e8c14471cd807c7af8",
    "rt": 2998,
    "stimulus": "imgs/face23.jpg",
    "slider_start": 50,
    "response": 100,
    "task": "response",
    "trial_type": "image-slider-response",
    "trial_index": 35,
    "time_elapsed": 112458,
    "internal_node_id": "0.0-2.0-1.16"
  },
  {
    "_id": "65d642ecc14471cd807c7af9",
    "rt": 3447,
    "stimulus": "imgs/p34_scr_1.jpg",
    "slider_start": 50,
    "response": 0,
    "task": "response",
    "trial_type": "image-slider-response",
    "trial_index": 37,
    "time_elapsed": 116410,
    "internal_node_id": "0.0-2.0-1.17"
  },
  {
    "_id": "65d642f3c14471cd807c7afa",
    "rt": 6174,
    "stimulus": "imgs/n127_match_4.jpg",
    "slider_start": 50,
    "response": 0,
    "task": "response",
    "trial_type": "image-slider-response",
    "trial_index": 39,
    "time_elapsed": 123098,
    "internal_node_id": "0.0-2.0-1.18"
  },
  {
    "_id": "65d642f7c14471cd807c7afb",
    "rt": 3520,
    "stimulus": "imgs/n34_match_scr_1.jpg",
    "slider_start": 50,
    "response": 0,
    "task": "response",
    "trial_type": "image-slider-response",
    "trial_index": 41,
    "time_elapsed": 127121,
    "internal_node_id": "0.0-2.0-1.19"
  },
  {
    "_id": "65d642fcc14471cd807c7afc",
    "rt": 4958,
    "stimulus": "imgs/p100_1.jpg",
    "slider_start": 50,
    "response": 72,
    "task": "response",
    "trial_type": "image-slider-response",
    "trial_index": 43,
    "time_elapsed": 132586,
    "internal_node_id": "0.0-2.0-1.20"
  },
  {
    "_id": "65d64301c14471cd807c7afd",
    "rt": 4621,
    "stimulus": "imgs/p155_2.jpg",
    "slider_start": 50,
    "response": 77,
    "task": "response",
    "trial_type": "image-slider-response",
    "trial_index": 45,
    "time_elapsed": 137713,
    "internal_node_id": "0.0-2.0-1.21"
  },
  {
    "_id": "65d64305c14471cd807c7afe",
    "rt": 3529,
    "stimulus": "imgs/n39_match_scr_4.jpg",
    "slider_start": 50,
    "response": 0,
    "task": "response",
    "trial_type": "image-slider-response",
    "trial_index": 47,
    "time_elapsed": 141745,
    "internal_node_id": "0.0-2.0-1.22"
  },
  {
    "_id": "65d64309c14471cd807c7aff",
    "rt": 3215,
    "stimulus": "imgs/face28.jpg",
    "slider_start": 50,
    "response": 100,
    "task": "response",
    "trial_type": "image-slider-response",
    "trial_index": 49,
    "time_elapsed": 145474,
    "internal_node_id": "0.0-2.0-1.23"
  },
  {
    "_id": "65d6430dc14471cd807c7b00",
    "rt": 3580,
    "stimulus": "imgs/n123_match_1.jpg",
    "slider_start": 50,
    "response": 0,
    "task": "response",
    "trial_type": "image-slider-response",
    "trial_index": 51,
    "time_elapsed": 149571,
    "internal_node_id": "0.0-2.0-1.24"
  },
  {
    "_id": "65d672a2c14471cd807c7b01",
    "rt": 993956,
    "stimulus": "imgs/p46_4.jpg",
    "slider_start": 50,
    "response": 0,
    "task": "response",
    "trial_type": "image-slider-response",
    "trial_index": 3,
    "time_elapsed": 1028543,
    "internal_node_id": "0.0-2.0-1.0"
  },
  {
    "_id": "65d672a7c14471cd807c7b02",
    "rt": 4391,
    "stimulus": "imgs/n97_match_1.jpg",
    "slider_start": 50,
    "response": 0,
    "task": "response",
    "trial_type": "image-slider-response",
    "trial_index": 5,
    "time_elapsed": 1033447,
    "internal_node_id": "0.0-2.0-1.1"
  },
  {
    "_id": "65d672abc14471cd807c7b03",
    "rt": 3915,
    "stimulus": "imgs/n34_match_scr_3.jpg",
    "slider_start": 50,
    "response": 0,
    "task": "response",
    "trial_type": "image-slider-response",
    "trial_index": 7,
    "time_elapsed": 1037880,
    "internal_node_id": "0.0-2.0-1.2"
  },
  {
    "_id": "65d672b0c14471cd807c7b04",
    "rt": 3710,
    "stimulus": "imgs/n142_match_2.jpg",
    "slider_start": 50,
    "response": 0,
    "task": "response",
    "trial_type": "image-slider-response",
    "trial_index": 9,
    "time_elapsed": 1042109,
    "internal_node_id": "0.0-2.0-1.3"
  },
  {
    "_id": "65d672b3c14471cd807c7b05",
    "rt": 2709,
    "stimulus": "imgs/p46_3.jpg",
    "slider_start": 50,
    "response": 0,
    "task": "response",
    "trial_type": "image-slider-response",
    "trial_index": 11,
    "time_elapsed": 1045330,
    "internal_node_id": "0.0-2.0-1.4"
  },
  {
    "_id": "65d672b7c14471cd807c7b06",
    "rt": 3435,
    "stimulus": "imgs/p108_scr_2.jpg",
    "slider_start": 50,
    "response": 0,
    "task": "response",
    "trial_type": "image-slider-response",
    "trial_index": 13,
    "time_elapsed": 1049280,
    "internal_node_id": "0.0-2.0-1.5"
  },
  {
    "_id": "65d672bbc14471cd807c7b07",
    "rt": 3280,
    "stimulus": "imgs/n34_match.jpg",
    "slider_start": 50,
    "response": 0,
    "task": "response",
    "trial_type": "image-slider-response",
    "trial_index": 15,
    "time_elapsed": 1053062,
    "internal_node_id": "0.0-2.0-1.6"
  },
  {
    "_id": "65d672c0c14471cd807c7b08",
    "rt": 5063,
    "stimulus": "imgs/p100_scr.jpg",
    "slider_start": 50,
    "response": 40,
    "task": "response",
    "trial_type": "image-slider-response",
    "trial_index": 17,
    "time_elapsed": 1058687,
    "internal_node_id": "0.0-2.0-1.7"
  },
  {
    "_id": "65d672c5c14471cd807c7b09",
    "rt": 4256,
    "stimulus": "imgs/p34_scr_4.jpg",
    "slider_start": 50,
    "response": 0,
    "task": "response",
    "trial_type": "image-slider-response",
    "trial_index": 19,
    "time_elapsed": 1063453,
    "internal_node_id": "0.0-2.0-1.8"
  },
  {
    "_id": "65d672c9c14471cd807c7b0a",
    "rt": 3173,
    "stimulus": "imgs/p147_scr_1.jpg",
    "slider_start": 50,
    "response": 0,
    "task": "response",
    "trial_type": "image-slider-response",
    "trial_index": 21,
    "time_elapsed": 1067138,
    "internal_node_id": "0.0-2.0-1.9"
  },
  {
    "_id": "65d672ccc14471cd807c7b0b",
    "rt": 2912,
    "stimulus": "imgs/n113_match_scr_4.jpg",
    "slider_start": 50,
    "response": 0,
    "task": "response",
    "trial_type": "image-slider-response",
    "trial_index": 23,
    "time_elapsed": 1070564,
    "internal_node_id": "0.0-2.0-1.10"
  },
  {
    "_id": "65d672d0c14471cd807c7b0c",
    "rt": 3164,
    "stimulus": "imgs/n80_match_1.jpg",
    "slider_start": 50,
    "response": 0,
    "task": "response",
    "trial_type": "image-slider-response",
    "trial_index": 25,
    "time_elapsed": 1074242,
    "internal_node_id": "0.0-2.0-1.11"
  },
  {
    "_id": "65d672d4c14471cd807c7b0d",
    "rt": 3296,
    "stimulus": "imgs/p20_scr.jpg",
    "slider_start": 50,
    "response": 0,
    "task": "response",
    "trial_type": "image-slider-response",
    "trial_index": 27,
    "time_elapsed": 1078041,
    "internal_node_id": "0.0-2.0-1.12"
  },
  {
    "_id": "65d672d7c14471cd807c7b0e",
    "rt": 2931,
    "stimulus": "imgs/p80_scr_1.jpg",
    "slider_start": 50,
    "response": 0,
    "task": "response",
    "trial_type": "image-slider-response",
    "trial_index": 29,
    "time_elapsed": 1081485,
    "internal_node_id": "0.0-2.0-1.13"
  },
  {
    "_id": "65d672dbc14471cd807c7b0f",
    "rt": 3102,
    "stimulus": "imgs/p135_scr_3.jpg",
    "slider_start": 50,
    "response": 0,
    "task": "response",
    "trial_type": "image-slider-response",
    "trial_index": 31,
    "time_elapsed": 1085098,
    "internal_node_id": "0.0-2.0-1.14"
  },
  {
    "_id": "65d672dec14471cd807c7b10",
    "rt": 2884,
    "stimulus": "imgs/p100_3.jpg",
    "slider_start": 50,
    "response": 0,
    "task": "response",
    "trial_type": "image-slider-response",
    "trial_index": 33,
    "time_elapsed": 1088499,
    "internal_node_id": "0.0-2.0-1.15"
  },
  {
    "_id": "65d672e1c14471cd807c7b11",
    "rt": 2614,
    "stimulus": "imgs/face09.jpg",
    "slider_start": 50,
    "response": 100,
    "task": "response",
    "trial_type": "image-slider-response",
    "trial_index": 35,
    "time_elapsed": 1091628,
    "internal_node_id": "0.0-2.0-1.16"
  },
  {
    "_id": "65d672e7c14471cd807c7b12",
    "rt": 5162,
    "stimulus": "imgs/p39_scr_4.jpg",
    "slider_start": 50,
    "response": 9,
    "task": "response",
    "trial_type": "image-slider-response",
    "trial_index": 37,
    "time_elapsed": 1097300,
    "internal_node_id": "0.0-2.0-1.17"
  },
  {
    "_id": "65d672ebc14471cd807c7b13",
    "rt": 3276,
    "stimulus": "imgs/n123_match_scr_1.jpg",
    "slider_start": 50,
    "response": 0,
    "task": "response",
    "trial_type": "image-slider-response",
    "trial_index": 39,
    "time_elapsed": 1101094,
    "internal_node_id": "0.0-2.0-1.18"
  },
  {
    "_id": "65d672efc14471cd807c7b14",
    "rt": 3487,
    "stimulus": "imgs/p08_scr_4.jpg",
    "slider_start": 50,
    "response": 0,
    "task": "response",
    "trial_type": "image-slider-response",
    "trial_index": 41,
    "time_elapsed": 1105087,
    "internal_node_id": "0.0-2.0-1.19"
  },
  {
    "_id": "65d7deadc14471cd807c7b15",
    "rt": 3819,
    "stimulus": "imgs/p146_scr_2.jpg",
    "slider_start": 50,
    "response": 0,
    "task": "response",
    "trial_type": "image-slider-response",
    "trial_index": 3,
    "time_elapsed": 19107,
    "internal_node_id": "0.0-2.0-1.0"
  },
  {
    "_id": "65d7deb0c14471cd807c7b16",
    "rt": 2970,
    "stimulus": "imgs/p146_scr_2.jpg",
    "slider_start": 50,
    "response": 0,
    "task": "response",
    "trial_type": "image-slider-response",
    "trial_index": 5,
    "time_elapsed": 22581,
    "internal_node_id": "0.0-2.0-1.1"
  },
  {
    "_id": "65d7deb9c14471cd807c7b17",
    "rt": 8416,
    "stimulus": "imgs/p155_scr_1.jpg",
    "slider_start": 50,
    "response": 41,
    "task": "response",
    "trial_type": "image-slider-response",
    "trial_index": 7,
    "time_elapsed": 31500,
    "internal_node_id": "0.0-2.0-1.2"
  },
  {
    "_id": "65d7debdc14471cd807c7b18",
    "rt": 3595,
    "stimulus": "imgs/p141_1.jpg",
    "slider_start": 50,
    "response": 41,
    "task": "response",
    "trial_type": "image-slider-response",
    "trial_index": 9,
    "time_elapsed": 35597,
    "internal_node_id": "0.0-2.0-1.3"
  },
  {
    "_id": "65d7dec1c14471cd807c7b19",
    "rt": 3548,
    "stimulus": "imgs/n59_match_scr_1.jpg",
    "slider_start": 50,
    "response": 0,
    "task": "response",
    "trial_type": "image-slider-response",
    "trial_index": 11,
    "time_elapsed": 39648,
    "internal_node_id": "0.0-2.0-1.4"
  },
  {
    "_id": "65d7dec6c14471cd807c7b1a",
    "rt": 4375,
    "stimulus": "imgs/n143_match_scr_1.jpg",
    "slider_start": 50,
    "response": 0,
    "task": "response",
    "trial_type": "image-slider-response",
    "trial_index": 13,
    "time_elapsed": 44525,
    "internal_node_id": "0.0-2.0-1.5"
  },
  {
    "_id": "65d7decac14471cd807c7b1b",
    "rt": 2841,
    "stimulus": "imgs/p34_scr_1.jpg",
    "slider_start": 50,
    "response": 0,
    "task": "response",
    "trial_type": "image-slider-response",
    "trial_index": 15,
    "time_elapsed": 47870,
    "internal_node_id": "0.0-2.0-1.6"
  },
  {
    "_id": "65d7decec14471cd807c7b1c",
    "rt": 4237,
    "stimulus": "imgs/p159_4.jpg",
    "slider_start": 50,
    "response": 28,
    "task": "response",
    "trial_type": "image-slider-response",
    "trial_index": 17,
    "time_elapsed": 52609,
    "internal_node_id": "0.0-2.0-1.7"
  },
  {
    "_id": "65d7ded2c14471cd807c7b1d",
    "rt": 3523,
    "stimulus": "imgs/p59_1.jpg",
    "slider_start": 50,
    "response": 60,
    "task": "response",
    "trial_type": "image-slider-response",
    "trial_index": 19,
    "time_elapsed": 56634,
    "internal_node_id": "0.0-2.0-1.8"
  },
  {
    "_id": "65d7ded7c14471cd807c7b1e",
    "rt": 4266,
    "stimulus": "imgs/p146_scr_3.jpg",
    "slider_start": 50,
    "response": 0,
    "task": "response",
    "trial_type": "image-slider-response",
    "trial_index": 21,
    "time_elapsed": 61402,
    "internal_node_id": "0.0-2.0-1.9"
  },
  {
    "_id": "65d7dedcc14471cd807c7b1f",
    "rt": 4864,
    "stimulus": "imgs/p83_scr_2.jpg",
    "slider_start": 50,
    "response": 71,
    "task": "response",
    "trial_type": "image-slider-response",
    "trial_index": 23,
    "time_elapsed": 66769,
    "internal_node_id": "0.0-2.0-1.10"
  },
  {
    "_id": "65d7dee2c14471cd807c7b20",
    "rt": 4650,
    "stimulus": "imgs/p114_4.jpg",
    "slider_start": 50,
    "response": 19,
    "task": "response",
    "trial_type": "image-slider-response",
    "trial_index": 25,
    "time_elapsed": 71922,
    "internal_node_id": "0.0-2.0-1.11"
  },
  {
    "_id": "65d7dee6c14471cd807c7b21",
    "rt": 3935,
    "stimulus": "imgs/n10_match_1.jpg",
    "slider_start": 50,
    "response": 8,
    "task": "response",
    "trial_type": "image-slider-response",
    "trial_index": 27,
    "time_elapsed": 76359,
    "internal_node_id": "0.0-2.0-1.12"
  },
  {
    "_id": "65d7deeac14471cd807c7b22",
    "rt": 3752,
    "stimulus": "imgs/p146_scr_4.jpg",
    "slider_start": 50,
    "response": 0,
    "task": "response",
    "trial_type": "image-slider-response",
    "trial_index": 29,
    "time_elapsed": 80615,
    "internal_node_id": "0.0-2.0-1.13"
  },
  {
    "_id": "65d7deefc14471cd807c7b23",
    "rt": 4293,
    "stimulus": "imgs/n37_match_scr.jpg",
    "slider_start": 50,
    "response": 0,
    "task": "response",
    "trial_type": "image-slider-response",
    "trial_index": 31,
    "time_elapsed": 85410,
    "internal_node_id": "0.0-2.0-1.14"
  },
  {
    "_id": "65d7def8c14471cd807c7b24",
    "rt": 8366,
    "stimulus": "imgs/n141_match_scr.jpg",
    "slider_start": 50,
    "response": 30,
    "task": "response",
    "trial_type": "image-slider-response",
    "trial_index": 33,
    "time_elapsed": 94280,
    "internal_node_id": "0.0-2.0-1.15"
  },
  {
    "_id": "65d7df00c14471cd807c7b25",
    "rt": 7668,
    "stimulus": "imgs/p20_scr_2.jpg",
    "slider_start": 50,
    "response": 48,
    "task": "response",
    "trial_type": "image-slider-response",
    "trial_index": 35,
    "time_elapsed": 102452,
    "internal_node_id": "0.0-2.0-1.16"
  },
  {
    "_id": "65d7df06c14471cd807c7b26",
    "rt": 5545,
    "stimulus": "imgs/p126_scr_1.jpg",
    "slider_start": 50,
    "response": 0,
    "task": "response",
    "trial_type": "image-slider-response",
    "trial_index": 37,
    "time_elapsed": 108500,
    "internal_node_id": "0.0-2.0-1.17"
  },
  {
    "_id": "65d7df12c14471cd807c7b27",
    "rt": 11173,
    "stimulus": "imgs/n20_match_scr_4.jpg",
    "slider_start": 50,
    "response": 20,
    "task": "response",
    "trial_type": "image-slider-response",
    "trial_index": 39,
    "time_elapsed": 120177,
    "internal_node_id": "0.0-2.0-1.18"
  },
  {
    "_id": "65d7df15c14471cd807c7b28",
    "rt": 3010,
    "stimulus": "imgs/n20_match_scr_2.jpg",
    "slider_start": 50,
    "response": 42,
    "task": "response",
    "trial_type": "image-slider-response",
    "trial_index": 41,
    "time_elapsed": 123689,
    "internal_node_id": "0.0-2.0-1.19"
  },
  {
    "_id": "65d7df19c14471cd807c7b29",
    "rt": 3316,
    "stimulus": "imgs/n156_match_scr_2.jpg",
    "slider_start": 50,
    "response": 17,
    "task": "response",
    "trial_type": "image-slider-response",
    "trial_index": 43,
    "time_elapsed": 127507,
    "internal_node_id": "0.0-2.0-1.20"
  },
  {
    "_id": "65d7df1dc14471cd807c7b2a",
    "rt": 3616,
    "stimulus": "imgs/p146_scr_2.jpg",
    "slider_start": 50,
    "response": 31,
    "task": "response",
    "trial_type": "image-slider-response",
    "trial_index": 45,
    "time_elapsed": 131627,
    "internal_node_id": "0.0-2.0-1.21"
  },
  {
    "_id": "65d7df30c14471cd807c7b2b",
    "rt": 18517,
    "stimulus": "imgs/n113_match_1.jpg",
    "slider_start": 50,
    "response": 39,
    "task": "response",
    "trial_type": "image-slider-response",
    "trial_index": 47,
    "time_elapsed": 150647,
    "internal_node_id": "0.0-2.0-1.22"
  },
  {
    "_id": "65d7df34c14471cd807c7b2c",
    "rt": 3485,
    "stimulus": "imgs/p10_2.jpg",
    "slider_start": 50,
    "response": 59,
    "task": "response",
    "trial_type": "image-slider-response",
    "trial_index": 49,
    "time_elapsed": 154635,
    "internal_node_id": "0.0-2.0-1.23"
  },
  {
    "_id": "65d7df38c14471cd807c7b2d",
    "rt": 3253,
    "stimulus": "imgs/face22.jpg",
    "slider_start": 50,
    "response": 100,
    "task": "response",
    "trial_type": "image-slider-response",
    "trial_index": 51,
    "time_elapsed": 158390,
    "internal_node_id": "0.0-2.0-1.24"
  },
  {
    "_id": "65df93f486498aeed07560e7",
    "rt": 18293,
    "stimulus": "imgs/p118_1.jpg",
    "slider_start": 50,
    "response": 5,
    "task": "response",
    "trial_type": "image-slider-response",
    "trial_index": 3,
    "time_elapsed": 46698,
    "internal_node_id": "0.0-2.0-1.0"
  },
  {
    "_id": "65df93fe86498aeed07560e8",
    "rt": 9526,
    "stimulus": "imgs/face15.jpg",
    "slider_start": 50,
    "response": 10,
    "task": "response",
    "trial_type": "image-slider-response",
    "trial_index": 5,
    "time_elapsed": 56728,
    "internal_node_id": "0.0-2.0-1.1"
  },
  {
    "_id": "65df945f86498aeed07560e9",
    "rt": 5133,
    "stimulus": "imgs/n127_match_2.jpg",
    "slider_start": 5,
    "response": 6,
    "task": "response",
    "trial_type": "image-slider-response",
    "trial_index": 3,
    "time_elapsed": 10555,
    "internal_node_id": "0.0-2.0-1.0"
  },
  {
    "_id": "65df94aa86498aeed07560ea",
    "rt": 11103,
    "stimulus": "imgs/n46_match_scr.jpg",
    "slider_start": 5,
    "response": 3,
    "task": "response",
    "trial_type": "image-slider-response",
    "trial_index": 3,
    "time_elapsed": 29850,
    "internal_node_id": "0.0-2.0-1.0"
  },
  {
    "_id": "65df989b86498aeed07560eb",
    "rt": 867204,
    "stimulus": "imgs/p113_scr.jpg",
    "slider_start": 5,
    "response": 7,
    "task": "response",
    "trial_type": "image-slider-response",
    "trial_index": 3,
    "time_elapsed": 881425,
    "internal_node_id": "0.0-2.0-1.0"
  },
  {
    "_id": "65df98a286498aeed07560ec",
    "rt": 6151,
    "stimulus": "imgs/p97.jpg",
    "slider_start": 5,
    "response": 10,
    "task": "response",
    "trial_type": "image-slider-response",
    "trial_index": 5,
    "time_elapsed": 888082,
    "internal_node_id": "0.0-2.0-1.1"
  },
  {
    "_id": "65df98a686498aeed07560ed",
    "rt": 3481,
    "stimulus": "imgs/p34_scr_2.jpg",
    "slider_start": 5,
    "response": 7,
    "task": "response",
    "trial_type": "image-slider-response",
    "trial_index": 7,
    "time_elapsed": 892067,
    "internal_node_id": "0.0-2.0-1.2"
  },
  {
    "_id": "65df98b186498aeed07560ee",
    "rt": 10833,
    "stimulus": "imgs/face22.jpg",
    "slider_start": 5,
    "response": 10,
    "task": "response",
    "trial_type": "image-slider-response",
    "trial_index": 9,
    "time_elapsed": 903402,
    "internal_node_id": "0.0-2.0-1.3"
  },
  {
    "_id": "65df98bb86498aeed07560ef",
    "rt": 9671,
    "stimulus": "imgs/p147_scr_1.jpg",
    "slider_start": 5,
    "response": 10,
    "task": "response",
    "trial_type": "image-slider-response",
    "trial_index": 11,
    "time_elapsed": 913577,
    "internal_node_id": "0.0-2.0-1.4"
  },
  {
    "_id": "65df98be86498aeed07560f0",
    "rt": 2765,
    "stimulus": "imgs/p39_scr_1.jpg",
    "slider_start": 5,
    "response": 3,
    "task": "response",
    "trial_type": "image-slider-response",
    "trial_index": 13,
    "time_elapsed": 916846,
    "internal_node_id": "0.0-2.0-1.5"
  },
  {
    "_id": "65df98c486498aeed07560f1",
    "rt": 4912,
    "stimulus": "imgs/n135_match_scr_1.jpg",
    "slider_start": 5,
    "response": 0,
    "task": "response",
    "trial_type": "image-slider-response",
    "trial_index": 15,
    "time_elapsed": 922262,
    "internal_node_id": "0.0-2.0-1.6"
  },
  {
    "_id": "65df98c886498aeed07560f2",
    "rt": 3204,
    "stimulus": "imgs/n81_match_2.jpg",
    "slider_start": 5,
    "response": 0,
    "task": "response",
    "trial_type": "image-slider-response",
    "trial_index": 17,
    "time_elapsed": 925969,
    "internal_node_id": "0.0-2.0-1.7"
  },
  {
    "_id": "65df98cb86498aeed07560f3",
    "rt": 3331,
    "stimulus": "imgs/p34_scr_3.jpg",
    "slider_start": 5,
    "response": 0,
    "task": "response",
    "trial_type": "image-slider-response",
    "trial_index": 19,
    "time_elapsed": 929803,
    "internal_node_id": "0.0-2.0-1.8"
  },
  {
    "_id": "65df98d086498aeed07560f4",
    "rt": 3713,
    "stimulus": "imgs/p59_scr_2.jpg",
    "slider_start": 5,
    "response": 8,
    "task": "response",
    "trial_type": "image-slider-response",
    "trial_index": 21,
    "time_elapsed": 934020,
    "internal_node_id": "0.0-2.0-1.9"
  },
  {
    "_id": "65df98de86498aeed07560f5",
    "rt": 13483,
    "stimulus": "imgs/n141_match_scr.jpg",
    "slider_start": 5,
    "response": 1,
    "task": "response",
    "trial_type": "image-slider-response",
    "trial_index": 23,
    "time_elapsed": 948006,
    "internal_node_id": "0.0-2.0-1.10"
  },
  {
    "_id": "65df98e486498aeed07560f6",
    "rt": 6124,
    "stimulus": "imgs/face25.jpg",
    "slider_start": 5,
    "response": 10,
    "task": "response",
    "trial_type": "image-slider-response",
    "trial_index": 25,
    "time_elapsed": 954633,
    "internal_node_id": "0.0-2.0-1.11"
  },
  {
    "_id": "65df98e886498aeed07560f7",
    "rt": 3427,
    "stimulus": "imgs/p100.jpg",
    "slider_start": 5,
    "response": 9,
    "task": "response",
    "trial_type": "image-slider-response",
    "trial_index": 27,
    "time_elapsed": 958565,
    "internal_node_id": "0.0-2.0-1.12"
  },
  {
    "_id": "65df98ec86498aeed07560f8",
    "rt": 3156,
    "stimulus": "imgs/n119_match_1.jpg",
    "slider_start": 5,
    "response": 1,
    "task": "response",
    "trial_type": "image-slider-response",
    "trial_index": 29,
    "time_elapsed": 962224,
    "internal_node_id": "0.0-2.0-1.13"
  },
  {
    "_id": "65df98ef86498aeed07560f9",
    "rt": 3079,
    "stimulus": "imgs/n113_match_scr_3.jpg",
    "slider_start": 5,
    "response": 2,
    "task": "response",
    "trial_type": "image-slider-response",
    "trial_index": 31,
    "time_elapsed": 965807,
    "internal_node_id": "0.0-2.0-1.14"
  },
  {
    "_id": "65df98f386498aeed07560fa",
    "rt": 3411,
    "stimulus": "imgs/p127_2.jpg",
    "slider_start": 5,
    "response": 2,
    "task": "response",
    "trial_type": "image-slider-response",
    "trial_index": 33,
    "time_elapsed": 969721,
    "internal_node_id": "0.0-2.0-1.15"
  },
  {
    "_id": "65df98f986498aeed07560fb",
    "rt": 5059,
    "stimulus": "imgs/n147_match_2.jpg",
    "slider_start": 5,
    "response": 1,
    "task": "response",
    "trial_type": "image-slider-response",
    "trial_index": 35,
    "time_elapsed": 975284,
    "internal_node_id": "0.0-2.0-1.16"
  },
  {
    "_id": "65df98fc86498aeed07560fc",
    "rt": 3048,
    "stimulus": "imgs/n141_match_1.jpg",
    "slider_start": 5,
    "response": 2,
    "task": "response",
    "trial_type": "image-slider-response",
    "trial_index": 37,
    "time_elapsed": 978835,
    "internal_node_id": "0.0-2.0-1.17"
  },
  {
    "_id": "65df990086498aeed07560fd",
    "rt": 3245,
    "stimulus": "imgs/p114_3.jpg",
    "slider_start": 5,
    "response": 2,
    "task": "response",
    "trial_type": "image-slider-response",
    "trial_index": 39,
    "time_elapsed": 982583,
    "internal_node_id": "0.0-2.0-1.18"
  },
  {
    "_id": "65df990686498aeed07560fe",
    "rt": 5248,
    "stimulus": "imgs/p123_1.jpg",
    "slider_start": 5,
    "response": 1,
    "task": "response",
    "trial_type": "image-slider-response",
    "trial_index": 41,
    "time_elapsed": 988334,
    "internal_node_id": "0.0-2.0-1.19"
  },
  {
    "_id": "65df990a86498aeed07560ff",
    "rt": 4004,
    "stimulus": "imgs/n11_match_scr_1.jpg",
    "slider_start": 5,
    "response": 1,
    "task": "response",
    "trial_type": "image-slider-response",
    "trial_index": 43,
    "time_elapsed": 992841,
    "internal_node_id": "0.0-2.0-1.20"
  },
  {
    "_id": "65df990f86498aeed0756100",
    "rt": 3825,
    "stimulus": "imgs/p34_scr_4.jpg",
    "slider_start": 5,
    "response": 8,
    "task": "response",
    "trial_type": "image-slider-response",
    "trial_index": 45,
    "time_elapsed": 997170,
    "internal_node_id": "0.0-2.0-1.21"
  },
  {
    "_id": "65df991286498aeed0756101",
    "rt": 3027,
    "stimulus": "imgs/p81_scr.jpg",
    "slider_start": 5,
    "response": 2,
    "task": "response",
    "trial_type": "image-slider-response",
    "trial_index": 47,
    "time_elapsed": 1000700,
    "internal_node_id": "0.0-2.0-1.22"
  },
  {
    "_id": "65df992086498aeed0756102",
    "rt": 12961,
    "stimulus": "imgs/p159_scr_2.jpg",
    "slider_start": 5,
    "response": 2,
    "task": "response",
    "trial_type": "image-slider-response",
    "trial_index": 49,
    "time_elapsed": 1014165,
    "internal_node_id": "0.0-2.0-1.23"
  },
  {
    "_id": "65df992486498aeed0756103",
    "rt": 3639,
    "stimulus": "imgs/n81_match_scr_4.jpg",
    "slider_start": 5,
    "response": 2,
    "task": "response",
    "trial_type": "image-slider-response",
    "trial_index": 51,
    "time_elapsed": 1018308,
    "internal_node_id": "0.0-2.0-1.24"
  },
  {
    "_id": "65df995486498aeed0756104",
    "rt": 47374,
    "stimulus": "imgs/n11_match_4.jpg",
    "slider_start": 5,
    "response": 2,
    "task": "response",
    "trial_type": "image-slider-response",
    "trial_index": 53,
    "time_elapsed": 1066186,
    "internal_node_id": "0.0-2.0-1.25"
  },
  {
    "_id": "65df995786498aeed0756105",
    "rt": 2594,
    "stimulus": "imgs/n147_match_3.jpg",
    "slider_start": 5,
    "response": 1,
    "task": "response",
    "trial_type": "image-slider-response",
    "trial_index": 55,
    "time_elapsed": 1069284,
    "internal_node_id": "0.0-2.0-1.26"
  },
  {
    "_id": "65df996286498aeed0756106",
    "rt": 10834,
    "stimulus": "imgs/n108_match_1.jpg",
    "slider_start": 5,
    "response": 2,
    "task": "response",
    "trial_type": "image-slider-response",
    "trial_index": 57,
    "time_elapsed": 1080622,
    "internal_node_id": "0.0-2.0-1.27"
  },
  {
    "_id": "65df996b86498aeed0756107",
    "rt": 8319,
    "stimulus": "imgs/n146_match_scr_4.jpg",
    "slider_start": 5,
    "response": 1,
    "task": "response",
    "trial_type": "image-slider-response",
    "trial_index": 59,
    "time_elapsed": 1089445,
    "internal_node_id": "0.0-2.0-1.28"
  },
  {
    "_id": "65df996f86498aeed0756108",
    "rt": 3652,
    "stimulus": "imgs/n97_match_scr_4.jpg",
    "slider_start": 5,
    "response": 1,
    "task": "response",
    "trial_type": "image-slider-response",
    "trial_index": 61,
    "time_elapsed": 1093598,
    "internal_node_id": "0.0-2.0-1.29"
  },
  {
    "_id": "65df997386498aeed0756109",
    "rt": 3128,
    "stimulus": "imgs/p11_2.jpg",
    "slider_start": 5,
    "response": 7,
    "task": "response",
    "trial_type": "image-slider-response",
    "trial_index": 63,
    "time_elapsed": 1097229,
    "internal_node_id": "0.0-2.0-1.30"
  },
  {
    "_id": "65df997786498aeed075610a",
    "rt": 3451,
    "stimulus": "imgs/n97_match_scr.jpg",
    "slider_start": 5,
    "response": 1,
    "task": "response",
    "trial_type": "image-slider-response",
    "trial_index": 65,
    "time_elapsed": 1101183,
    "internal_node_id": "0.0-2.0-1.31"
  },
  {
    "_id": "65df997a86498aeed075610b",
    "rt": 3085,
    "stimulus": "imgs/p142_4.jpg",
    "slider_start": 5,
    "response": 2,
    "task": "response",
    "trial_type": "image-slider-response",
    "trial_index": 67,
    "time_elapsed": 1104771,
    "internal_node_id": "0.0-2.0-1.32"
  },
  {
    "_id": "65df998786498aeed075610c",
    "rt": 12406,
    "stimulus": "imgs/p156_2.jpg",
    "slider_start": 5,
    "response": 2,
    "task": "response",
    "trial_type": "image-slider-response",
    "trial_index": 69,
    "time_elapsed": 1117680,
    "internal_node_id": "0.0-2.0-1.33"
  },
  {
    "_id": "65df999786498aeed075610d",
    "rt": 15277,
    "stimulus": "imgs/face18.jpg",
    "slider_start": 5,
    "response": 10,
    "task": "response",
    "trial_type": "image-slider-response",
    "trial_index": 71,
    "time_elapsed": 1133460,
    "internal_node_id": "0.0-2.0-1.34"
  },
  {
    "_id": "65df999b86498aeed075610e",
    "rt": 3672,
    "stimulus": "imgs/p156_scr_2.jpg",
    "slider_start": 5,
    "response": 2,
    "task": "response",
    "trial_type": "image-slider-response",
    "trial_index": 73,
    "time_elapsed": 1137636,
    "internal_node_id": "0.0-2.0-1.35"
  },
  {
    "_id": "65df99a286498aeed075610f",
    "rt": 6614,
    "stimulus": "imgs/p127_1.jpg",
    "slider_start": 5,
    "response": 1,
    "task": "response",
    "trial_type": "image-slider-response",
    "trial_index": 75,
    "time_elapsed": 1144753,
    "internal_node_id": "0.0-2.0-1.36"
  },
  {
    "_id": "65df99b286498aeed0756110",
    "rt": 15217,
    "stimulus": "imgs/p100_scr_4.jpg",
    "slider_start": 5,
